Subject,cond,trialNum,reversals,streakLength,lowFreq,highFreq,freqDiff,correct,RT,Time
ABCD_1701,a,1,0,0,1000,1500,500,1,2.894405842,55.403512
ABCD_1701,a,2,0,1,1000,1500,500,1,2.337852955,57.74155998
ABCD_1701,a,3,0,0,1000,750,250,1,2.62221694,60.36420012
ABCD_1701,a,4,0,1,1000,750,250,1,2.154602051,62.51904607
ABCD_1701,a,5,0,0,1000,1125,125,1,2.454452038,64.97366905
ABCD_1701,a,6,0,1,1000,875,125,1,2.338139057,67.31197715
ABCD_1701,a,7,0,0,1000,1062.5,62.5,1,2.622075081,69.93421316
ABCD_1701,a,8,0,1,1000,937.5,62.5,1,2.872951031,72.80738997
ABCD_1701,a,9,0,0,1000,968.75,31.25,1,2.003723145,74.81129098
ABCD_1701,a,10,0,1,1000,1031.25,31.25,1,2.254744053,77.06641698
ABCD_1701,a,11,0,0,1000,984.375,15.625,0,3.122879028,80.1896441
ABCD_1701,a,12,1,0,1000,1055.625,55.625,1,3.22317791,83.41321516
ABCD_1701,a,13,1,1,1000,944.375,55.625,1,2.939143896,86.35255313
ABCD_1701,a,14,1,0,1000,972.1875,27.8125,1,2.872537136,89.22524905
ABCD_1701,a,15,1,1,1000,972.1875,27.8125,1,2.271386862,91.49675012
ABCD_1701,a,16,1,0,1000,1013.90625,13.90625,1,2.371741056,93.86884999
ABCD_1701,a,17,1,1,1000,986.09375,13.90625,1,2.421388865,96.29057813
ABCD_1701,a,18,1,0,1000,993.046875,6.953125,1,2.638648033,98.92942905
ABCD_1701,a,19,1,1,1000,1006.953125,6.953125,0,2.588653803,101.518404
ABCD_1701,a,20,2,0,1000,1046.953125,46.953125,1,2.838965893,104.357785
ABCD_1701,a,21,2,1,1000,953.046875,46.953125,1,2.822373867,107.1803591
ABCD_1701,a,22,2,0,1000,976.5234375,23.4765625,1,2.304616213,109.485137
ABCD_1701,a,23,2,1,1000,976.5234375,23.4765625,1,2.521860838,112.007385
ABCD_1701,a,24,2,0,1000,1011.738281,11.73828125,1,2.671993971,114.6795161
ABCD_1701,a,25,2,1,1000,1011.738281,11.73828125,1,3.00641489,117.6862621
ABCD_1701,a,26,2,0,1000,994.1308594,5.869140625,1,3.089480162,120.775949
ABCD_1701,a,27,2,1,1000,994.1308594,5.869140625,0,2.772946119,123.5491121
ABCD_1701,a,28,3,0,1000,1045.869141,45.86914063,1,2.254020929,125.8032801
ABCD_1701,a,29,3,1,1000,1045.869141,45.86914063,1,2.288147926,128.0917611
ABCD_1701,a,30,3,0,1000,1022.93457,22.93457031,1,2.120790005,130.2128992
ABCD_1701,a,31,3,1,1000,1022.93457,22.93457031,1,2.421504021,132.6347871
ABCD_1701,a,32,3,0,1000,988.5327148,11.46728516,1,2.705428839,135.340606
ABCD_1701,a,33,3,1,1000,988.5327148,11.46728516,1,2.571698904,137.912694
ABCD_1701,a,34,3,0,1000,994.2663574,5.733642578,1,2.571719885,140.4846191
ABCD_1701,a,35,3,1,1000,1005.733643,5.733642578,1,2.672250032,143.157191
ABCD_1701,a,36,3,0,1000,997.1331787,2.866821289,0,2.354667187,145.5121651
ABCD_1701,a,37,4,0,1000,957.1331787,42.86682129,1,2.338011026,147.8505702
ABCD_1701,a,38,4,1,1000,1042.866821,42.86682129,1,2.337862968,150.1886392
ABCD_1701,a,39,4,0,1000,1021.433411,21.43341064,1,2.471831083,152.6607921
ABCD_1701,a,40,4,1,1000,1021.433411,21.43341064,1,2.404708147,155.065701
ABCD_1701,a,41,4,0,1000,1010.716705,10.71670532,1,2.321534872,157.3875802
ABCD_1701,a,42,4,1,1000,1010.716705,10.71670532,1,2.404720068,159.7925
ABCD_1701,a,43,4,0,1000,994.6416473,5.358352661,1,2.688827038,162.481498
ABCD_1701,a,44,4,1,1000,1005.358353,5.358352661,1,2.672252893,165.1541231
ABCD_1701,a,45,4,0,1000,997.3208237,2.679176331,1,2.387947798,167.5422771
ABCD_1701,a,46,4,1,1000,997.3208237,2.679176331,1,2.288138151,169.83075
ABCD_1701,a,47,4,0,1000,998.6604118,1.339588165,0,2.438094139,172.269047
ABCD_1701,a,48,5,0,1000,1026.339588,26.33958817,1,2.455295086,174.7246492
ABCD_1701,a,49,5,1,1000,1026.339588,26.33958817,1,2.187463999,176.9122741
ABCD_1701,a,50,5,0,1000,986.8302059,13.16979408,1,2.37155509,179.284019
ABCD_1701,a,51,5,1,1000,1013.169794,13.16979408,1,2.104352951,181.3887041
ABCD_1701,a,52,5,0,1000,993.415103,6.584897041,1,2.321169853,183.7100701
ABCD_1701,a,53,5,1,1000,1006.584897,6.584897041,0,2.505223036,186.2156491
ABCD_1701,a,54,6,0,1000,968.415103,31.58489704,1,2.236814976,188.4535532
ABCD_1701,a,55,6,1,1000,968.415103,31.58489704,1,2.087663889,190.5413971
ABCD_1701,a,56,6,0,1000,984.2075515,15.79244852,0,2.020756006,192.5625141
ABCD_1701,a,57,7,0,1000,959.2075515,40.79244852,1,2.070370913,194.6330862
ABCD_1701,a,58,7,1,1000,959.2075515,40.79244852,1,2.054448128,196.6877081
ABCD_1701,a,59,7,0,1000,979.6037757,20.39622426,1,2.271404028,198.9592841
ABCD_1701,a,60,7,1,1000,1020.396224,20.39622426,1,2.388231993,201.3476272
ABCD_1701,a,61,7,0,1000,989.8018879,10.19811213,1,2.655572891,204.0033741
ABCD_1701,a,62,7,1,1000,1010.198112,10.19811213,1,2.187879801,206.1916242
ABCD_1701,a,63,7,0,1000,994.9009439,5.099056065,1,2.471524954,208.663553
ABCD_1701,a,64,7,1,1000,1005.099056,5.099056065,1,2.087312937,210.751214
ABCD_1701,a,65,7,0,1000,997.450472,2.549528033,1,1.970528126,212.721936
ABCD_1701,a,66,7,1,1000,1002.549528,2.549528033,1,2.171123028,214.8932321
ABCD_1701,a,67,7,0,1000,1001.274764,1.274764016,1,2.104317188,216.99772
ABCD_1701,a,68,7,1,1000,998.725236,1.274764016,0,2.070915937,219.0689292
ABCD_1701,a,69,8,0,1000,973.725236,26.27476402,1,2.287904024,221.3570402
ABCD_1701,a,70,8,1,1000,1026.274764,26.27476402,1,2.204477072,223.5618291
ABCD_1701,r,1,0,0,1358,1858,500,1,2.945619106,229.6747601
ABCD_1701,r,2,0,1,1140,1640,500,1,2.755702019,232.430644
ABCD_1701,r,3,0,0,1367,1617,250,1,3.290155172,235.7211032
ABCD_1701,r,4,0,1,1427,1177,250,1,3.50711894,239.2284112
ABCD_1701,r,5,0,0,1299,1174,125,1,2.438365936,241.6669521
ABCD_1701,r,6,0,1,1182,1307,125,1,3.039654016,244.7067802
ABCD_1701,r,7,0,0,1269.5,1207,62.5,1,3.189960003,247.8968532
ABCD_1701,r,8,0,1,1159,1221.5,62.5,1,1.987475872,249.8846362
ABCD_1701,r,9,0,0,1174.25,1143,31.25,1,2.221050024,252.1058822
ABCD_1701,r,10,0,1,1365.25,1334,31.25,1,2.254725933,254.3609481
ABCD_1701,r,11,0,0,1201,1216.625,15.625,0,2.070637941,256.4317741
ABCD_1701,r,12,1,0,1369,1424.625,55.625,1,2.054065943,258.486161
ABCD_1701,r,13,1,1,1227,1282.625,55.625,1,2.054210901,260.540782
ABCD_1701,r,14,1,0,1320.8125,1293,27.8125,1,2.504870892,263.0458541
ABCD_1701,r,15,1,1,1051,1078.8125,27.8125,1,2.204633951,265.2508202
ABCD_1701,r,16,1,0,1386,1399.90625,13.90625,1,3.824432135,269.0756071
ABCD_1701,r,17,1,1,1038.90625,1025,13.90625,1,2.989280939,272.065094
ABCD_1701,r,18,1,0,1374,1380.953125,6.953125,0,2.571990967,274.6372612
ABCD_1701,r,19,2,0,1303,1349.953125,46.953125,1,3.524062157,278.161669
ABCD_1701,r,20,2,1,1145,1191.953125,46.953125,1,2.705397844,280.8674572
ABCD_1701,r,21,2,0,1360,1383.476563,23.4765625,0,2.555038929,283.4228702
ABCD_1701,r,22,3,0,1063,1126.476563,63.4765625,1,2.254261017,285.677336
ABCD_1701,r,23,3,1,1403.476563,1340,63.4765625,1,2.154577971,287.8322361
ABCD_1701,r,24,3,0,1120,1151.738281,31.73828125,0,2.170892,290.0033312
ABCD_1701,r,25,4,0,1427.738281,1356,71.73828125,1,2.606041193,292.6096671
ABCD_1701,r,26,4,1,1127,1198.738281,71.73828125,1,2.136931896,294.7467792
ABCD_1701,r,27,4,0,1189,1224.869141,35.86914063,1,2.071004868,296.8181272
ABCD_1701,r,28,4,1,1387,1422.869141,35.86914063,1,2.087224007,298.9055622
ABCD_1701,r,29,4,0,1265,1282.93457,17.93457031,1,2.338230133,301.2439661
ABCD_1701,r,30,4,1,1002,1019.93457,17.93457031,0,2.338181019,303.5824461
ABCD_1701,r,31,5,0,1313.93457,1271,42.93457031,0,2.388093948,305.970751
ABCD_1701,r,32,6,0,1389.93457,1322,67.93457031,1,3.023051023,308.994122
ABCD_1701,r,33,6,1,1103,1170.93457,67.93457031,1,2.287749052,311.2820702
ABCD_1701,r,34,6,0,1107,1140.967285,33.96728516,1,2.839189053,314.121417
ABCD_1701,r,35,6,1,1014,1047.967285,33.96728516,1,2.288089037,316.4098241
ABCD_1701,r,36,6,0,1271.983643,1255,16.98364258,1,2.939181089,319.349215
ABCD_1701,r,37,6,1,1314,1330.983643,16.98364258,0,3.707743883,323.0571332
ABCD_1701,r,38,7,0,1200,1241.983643,41.98364258,1,2.187808037,325.2451072
ABCD_1701,r,39,7,1,1388,1429.983643,41.98364258,1,2.638852835,327.8841372
ABCD_1701,r,40,7,0,1203.991821,1183,20.99182129,1,2.388303041,330.2728031
ABCD_1701,r,41,7,1,1141.991821,1121,20.99182129,1,2.321137905,332.5941441
ABCD_1701,r,42,7,0,1358.495911,1348,10.49591064,1,2.321460962,334.9159212
ABCD_1701,r,43,7,1,1144.495911,1134,10.49591064,0,3.907940149,338.824049
ABCD_1701,r,44,8,0,1239.495911,1204,35.49591064,1,2.97292614,341.7973521
ABCD_1701,r,45,8,1,1061,1096.495911,35.49591064,1,3.690836906,345.488584
ABCD_1701,r,46,8,0,1208.747955,1191,17.74795532,1,2.321165085,347.8101292
ABCD_1701,r,47,8,1,1208,1225.747955,17.74795532,0,2.237735033,350.0482011
ABCD_1701,r,48,9,0,1057,1079.747955,22.74795532,0,2.521615028,352.5699611
ABCD_1701,r,49,10,0,1286.747955,1259,27.74795532,0,3.089876175,355.6601782
ABCD_1701,r,50,11,0,1272.747955,1240,32.74795532,1,3.189804077,358.8503861
ABCD_1701,r,51,11,1,1126.747955,1094,32.74795532,1,2.755475044,361.60625
ABCD_1701,r,52,11,0,1215,1231.373978,16.37397766,0,2.521630049,364.1282132
ABCD_1701,r,53,12,0,1033.373978,1012,21.37397766,0,2.955954075,367.0843761
ABCD_1701,r,54,13,0,1045.373978,1019,26.37397766,1,2.638727903,369.7232652
ABCD_1701,r,55,13,1,1241.373978,1215,26.37397766,1,2.855952024,372.5793841
ABCD_1701,r,56,13,0,1394,1407.186989,13.18698883,0,2.304823875,374.8845971
ABCD_1701,r,57,14,0,1191,1209.186989,18.18698883,0,2.421238184,377.306164
ABCD_1701,r,58,15,0,1232.186989,1209,23.18698883,1,3.340265036,380.6466382
ABCD_1701,r,59,15,1,1304,1327.186989,23.18698883,1,2.922696114,383.56951
ABCD_1701,r,60,15,0,1411.593494,1400,11.59349442,0,2.338139057,385.907892
ABCD_1701,r,61,16,0,1340.593494,1324,16.59349442,1,2.304548025,388.212867
ABCD_1701,r,62,16,1,1200.593494,1184,16.59349442,1,2.872411966,391.085428
ABCD_1701,r,63,16,0,1284.296747,1276,8.296747208,1,2.688979149,393.7747071
ABCD_1701,r,64,16,1,1280.296747,1272,8.296747208,1,2.471552849,396.246433
ABCD_1701,r,65,16,0,1084.148374,1080,4.148373604,1,3.808048964,400.0546441
ABCD_1701,r,66,16,1,1318,1322.148374,4.148373604,0,2.43842411,402.4933412
ABCD_1704,r,1,0,0,1788,1288,500,1,3.372908831,57.15720391
ABCD_1704,r,2,0,1,1110,1610,500,1,3.073038101,60.23056698
ABCD_1704,r,3,0,0,1529,1279,250,1,2.638571024,62.86934185
ABCD_1704,r,4,0,1,1369,1619,250,1,2.037451983,64.90697694
ABCD_1704,r,5,0,0,1504,1379,125,1,2.187850952,67.09514594
ABCD_1704,r,6,0,1,1181,1056,125,1,2.371698856,69.46712279
ABCD_1704,r,7,0,0,1206.5,1144,62.5,1,2.20394206,71.671242
ABCD_1704,r,8,0,1,1092,1154.5,62.5,0,2.171215057,73.84264588
ABCD_1704,r,9,1,0,1137,1239.5,102.5,1,2.622035027,76.464854
ABCD_1704,r,10,1,1,1038,1140.5,102.5,1,2.388287067,78.85343695
ABCD_1704,r,11,1,0,1123,1174.25,51.25,1,2.505061865,81.35889578
ABCD_1704,r,12,1,1,1257.25,1206,51.25,1,2.688555956,84.04764986
ABCD_1704,r,13,1,0,1316,1341.625,25.625,1,2.488536119,86.53654981
ABCD_1704,r,14,1,1,1376.625,1351,25.625,0,3.172954082,89.70985293
ABCD_1704,r,15,2,0,1288.625,1223,65.625,1,2.722069025,92.43212986
ABCD_1704,r,16,2,1,1021,1086.625,65.625,0,2.488457918,94.92077494
ABCD_1704,r,17,3,0,1371.625,1266,105.625,1,3.039718151,97.96083879
ABCD_1704,r,18,3,1,1197.625,1092,105.625,1,2.889065981,100.8502519
ABCD_1704,r,19,3,0,1398,1450.8125,52.8125,1,2.304491043,103.1549449
ABCD_1704,r,20,3,1,1249.8125,1197,52.8125,1,2.638725042,105.7938468
ABCD_1704,r,21,3,0,1331.40625,1305,26.40625,1,3.357055902,109.1512368
ABCD_1704,r,22,3,1,1173.40625,1147,26.40625,0,3.874448061,113.0258818
ABCD_1704,r,23,4,0,1068,1134.40625,66.40625,0,2.822546959,115.848789
ABCD_1704,r,24,5,0,1072,1163.40625,91.40625,1,3.423497915,119.2724929
ABCD_1704,r,25,5,1,1025,1116.40625,91.40625,1,3.073575974,122.3462789
ABCD_1704,r,26,5,0,1053,1098.703125,45.703125,1,2.187320948,124.5339668
ABCD_1704,r,27,5,1,1209.703125,1164,45.703125,0,2.037249088,126.5716128
ABCD_1704,r,28,6,0,1165,1235.703125,70.703125,1,2.538127899,129.1100848
ABCD_1704,r,29,6,1,1309.703125,1239,70.703125,0,2.63868618,131.7489259
ABCD_1704,r,30,7,0,1166,1261.703125,95.703125,1,2.622240067,134.3715239
ABCD_1704,r,31,7,1,1303.703125,1208,95.703125,1,2.0706532,136.4423888
ABCD_1704,r,32,7,0,1291,1338.851563,47.8515625,1,2.271279097,138.713835
ABCD_1704,r,33,7,1,1165,1212.851563,47.8515625,1,2.455138922,141.1693358
ABCD_1704,r,34,7,0,1063.925781,1040,23.92578125,1,2.204675913,143.374445
ABCD_1704,r,35,7,1,1350,1373.925781,23.92578125,1,2.10364604,145.4782748
ABCD_1704,r,36,7,0,1409.962891,1398,11.96289063,0,2.070844889,147.5492909
ABCD_1704,r,37,8,0,1318,1354.962891,36.96289063,1,2.53856802,150.0880549
ABCD_1704,r,38,8,1,1174.962891,1138,36.96289063,1,2.121011972,152.209368
ABCD_1704,r,39,8,0,1092.481445,1074,18.48144531,1,2.003778934,154.2133398
ABCD_1704,r,40,8,1,1177.481445,1159,18.48144531,1,2.104447842,156.3178968
ABCD_1704,r,41,8,0,1275,1284.240723,9.240722656,1,2.789133072,159.1072028
ABCD_1704,r,42,8,1,1085,1094.240723,9.240722656,0,2.237922907,161.3452868
ABCD_1704,r,43,9,0,1341.240723,1327,14.24072266,0,2.271354914,163.616967
ABCD_1704,r,44,10,0,1078.240723,1059,19.24072266,0,3.390218973,167.0075259
ABCD_1704,r,45,11,0,1289,1313.240723,24.24072266,1,2.387926102,169.3956568
ABCD_1704,r,46,11,1,1122,1146.240723,24.24072266,0,2.421710968,171.8175039
ABCD_1704,r,47,12,0,1013,1042.240723,29.24072266,1,2.388282061,174.2058918
ABCD_1704,r,48,12,1,1176,1205.240723,29.24072266,1,2.271495104,176.4776969
ABCD_1704,r,49,12,0,1142,1156.620361,14.62036133,1,3.106257916,179.584327
ABCD_1704,r,50,12,1,1066.620361,1052,14.62036133,1,2.321011066,181.9055469
ABCD_1704,r,51,12,0,1152.310181,1145,7.310180664,0,2.455109835,184.3608239
ABCD_1704,r,52,13,0,1126.310181,1114,12.31018066,1,2.43835187,186.7993429
ABCD_1704,r,53,13,1,1009,1021.310181,12.31018066,0,2.83929491,189.6388068
ABCD_1704,r,54,14,0,1291.310181,1274,17.31018066,0,2.722376108,192.3613639
ABCD_1704,r,55,15,0,1030,1052.310181,22.31018066,0,3.173140049,195.5347209
ABCD_1704,r,56,16,0,1231,1258.310181,27.31018066,1,3.189991951,198.7248919
ABCD_1704,r,57,16,1,1219,1246.310181,27.31018066,1,2.438263893,201.1632738
ABCD_1704,r,58,16,0,1254.65509,1241,13.65509033,0,2.522006035,203.685535
ABCD_1704,a,1,0,0,1000,500,500,1,4.307929039,213.5065649
ABCD_1704,a,2,0,1,1000,1500,500,1,2.454623938,215.9616199
ABCD_1704,a,3,0,0,1000,1250,250,1,2.438014984,218.3998239
ABCD_1704,a,4,0,1,1000,1250,250,1,2.321644068,220.7216468
ABCD_1704,a,5,0,0,1000,875,125,1,2.638777018,223.360781
ABCD_1704,a,6,0,1,1000,875,125,1,2.170840025,225.5318208
ABCD_1704,a,7,0,0,1000,937.5,62.5,1,2.288055897,227.8200538
ABCD_1704,a,8,0,1,1000,1062.5,62.5,1,2.288502932,230.1090288
ABCD_1704,a,9,0,0,1000,1031.25,31.25,1,2.370612144,232.4798369
ABCD_1704,a,10,0,1,1000,968.75,31.25,1,2.622236013,235.1023939
ABCD_1704,a,11,0,0,1000,984.375,15.625,1,2.35469389,237.457454
ABCD_1704,a,12,0,1,1000,1015.625,15.625,1,2.52164197,239.9794648
ABCD_1704,a,13,0,0,1000,992.1875,7.8125,1,2.672045946,242.651881
ABCD_1704,a,14,0,1,1000,1007.8125,7.8125,1,2.55490303,245.2069738
ABCD_1704,a,15,0,0,1000,996.09375,3.90625,0,2.120944023,247.3280818
ABCD_1704,a,16,1,0,1000,956.09375,43.90625,1,2.538545847,249.8667958
ABCD_1704,a,17,1,1,1000,1043.90625,43.90625,1,2.221709967,252.0887468
ABCD_1704,a,18,1,0,1000,1021.953125,21.953125,1,2.237364054,254.326283
ABCD_1704,a,19,1,1,1000,978.046875,21.953125,1,2.204647064,256.531091
ABCD_1704,a,20,1,0,1000,989.0234375,10.9765625,1,2.25458312,258.7858078
ABCD_1704,a,21,1,1,1000,989.0234375,10.9765625,1,2.104400158,260.8903849
ABCD_1704,a,22,1,0,1000,994.5117188,5.48828125,1,2.221307993,263.1118679
ABCD_1704,a,23,1,1,1000,1005.488281,5.48828125,0,2.438248158,265.550282
ABCD_1704,a,24,2,0,1000,954.5117188,45.48828125,1,2.521872044,268.0724678
ABCD_1704,a,25,2,1,1000,954.5117188,45.48828125,1,2.571749926,270.6444199
ABCD_1704,a,26,2,0,1000,1022.744141,22.74414063,1,2.321342945,272.9659359
ABCD_1704,a,27,2,1,1000,1022.744141,22.74414063,1,2.271447182,275.2375669
ABCD_1704,a,28,2,0,1000,1011.37207,11.37207031,1,2.221305847,277.459214
ABCD_1704,a,29,2,1,1000,988.6279297,11.37207031,1,2.287773132,279.74734
ABCD_1704,a,30,2,0,1000,994.3139648,5.686035156,0,2.488421917,282.2360058
ABCD_1704,a,31,3,0,1000,954.3139648,45.68603516,1,2.220997095,284.4571788
ABCD_1704,a,32,3,1,1000,954.3139648,45.68603516,1,2.12105298,286.5785999
ABCD_1704,a,33,3,0,1000,1022.843018,22.84301758,1,2.204246044,288.783247
ABCD_1704,a,34,3,1,1000,1022.843018,22.84301758,1,2.438077927,291.2215388
ABCD_1704,a,35,3,0,1000,1011.421509,11.42150879,1,2.10433197,293.3260438
ABCD_1704,a,36,3,1,1000,1011.421509,11.42150879,0,2.739028931,296.0654089
ABCD_1704,a,37,4,0,1000,1051.421509,51.42150879,1,2.270999908,298.3366199
ABCD_1704,a,38,4,1,1000,948.5784912,51.42150879,1,2.237993002,300.5749359
ABCD_1704,a,39,4,0,1000,1025.710754,25.71075439,1,2.204199791,302.7793589
ABCD_1704,a,40,4,1,1000,1025.710754,25.71075439,1,2.338298082,305.1180208
ABCD_1704,a,41,4,0,1000,1012.855377,12.8553772,1,2.43808198,307.5564179
ABCD_1704,a,42,4,1,1000,987.1446228,12.8553772,1,2.33800602,309.8948169
ABCD_1704,a,43,4,0,1000,1006.427689,6.427688599,0,2.63857007,312.5337369
ABCD_1704,a,44,5,0,1000,968.5723114,31.4276886,1,2.371314049,314.905257
ABCD_1704,a,45,5,1,1000,1031.427689,31.4276886,1,2.7055161,317.61092
ABCD_1704,a,46,5,0,1000,1015.713844,15.7138443,1,2.25474,319.866025
ABCD_1704,a,47,5,1,1000,984.2861557,15.7138443,1,2.355120182,322.2216258
ABCD_1704,a,48,5,0,1000,1007.856922,7.85692215,1,3.038851023,325.2608428
ABCD_1704,a,49,5,1,1000,1007.856922,7.85692215,1,2.354444027,327.6154969
ABCD_1704,a,50,5,0,1000,1003.928461,3.928461075,1,2.354938984,329.9706008
ABCD_1704,a,51,5,1,1000,1003.928461,3.928461075,1,2.221651077,332.1927788
ABCD_1704,a,52,5,0,1000,1001.964231,1.964230537,1,2.17028904,334.3632648
ABCD_1704,a,53,5,1,1000,1001.964231,1.964230537,1,2.187827826,336.551266
ABCD_1704,a,54,5,0,1000,1000.982115,0.982115269,1,2.321432114,338.8728688
ABCD_1704,a,55,5,1,1000,999.0178847,0.982115269,0,2.271217108,341.1442699
ABCD_1704,a,56,6,0,1000,974.0178847,25.98211527,1,2.421715975,343.5662529
ABCD_1704,a,57,6,1,1000,1025.982115,25.98211527,1,2.755614996,346.3220749
ABCD_1704,a,58,6,0,1000,1012.991058,12.99105763,1,2.588521004,348.9107628
ABCD_1704,a,59,6,1,1000,987.0089424,12.99105763,1,2.571981907,351.4829099
ABCD_1704,a,60,6,0,1000,993.5044712,6.495528817,1,2.321527004,353.8046
ABCD_1704,a,61,6,1,1000,993.5044712,6.495528817,1,2.57209897,356.3770299
ABCD_1704,a,62,6,0,1000,1003.247764,3.247764409,0,2.588253021,358.9654298
ABCD_1704,a,63,7,0,1000,971.7522356,28.24776441,1,2.421885967,361.3876679
ABCD_1704,a,64,7,1,1000,1028.247764,28.24776441,1,2.438019037,363.82583
ABCD_1704,a,65,7,0,1000,985.8761178,14.1238822,1,2.338270903,366.1642728
ABCD_1704,a,66,7,1,1000,985.8761178,14.1238822,1,2.271257162,368.4356339
ABCD_1704,a,67,7,0,1000,992.9380589,7.061941102,1,3.056494951,371.4922988
ABCD_1704,a,68,7,1,1000,1007.061941,7.061941102,1,2.254575014,373.7470529
ABCD_1704,a,69,7,0,1000,996.4690294,3.530970551,0,2.05424118,375.8016438
ABCD_1704,a,70,8,0,1000,1028.530971,28.53097055,1,2.555065155,378.3571179
ABCD_1710,a,1,0,0,1000,1500,500,1,2.356563091,80.7463429
ABCD_1710,a,2,0,1,1000,500,500,1,2.455065966,83.20170188
ABCD_1710,a,3,0,0,1000,1250,250,1,2.304650068,85.50674796
ABCD_1710,a,4,0,1,1000,750,250,1,2.388067961,87.89519882
ABCD_1710,a,5,0,0,1000,875,125,1,2.488180876,90.38378
ABCD_1710,a,6,0,1,1000,875,125,1,2.288146973,92.67238188
ABCD_1710,a,7,0,0,1000,1062.5,62.5,1,2.487802029,95.1603868
ABCD_1710,a,8,0,1,1000,1062.5,62.5,1,1.920578957,97.081146
ABCD_1710,a,9,0,0,1000,1031.25,31.25,0,2.822417974,99.90373683
ABCD_1710,a,10,1,0,1000,928.75,71.25,1,2.705974102,102.609946
ABCD_1710,a,11,1,1,1000,928.75,71.25,1,2.321109056,104.9312339
ABCD_1710,a,12,1,0,1000,1035.625,35.625,1,2.438402891,107.3698058
ABCD_1710,a,13,1,1,1000,1035.625,35.625,1,2.020841837,109.3909879
ABCD_1710,a,14,1,0,1000,982.1875,17.8125,1,2.671916962,112.0631039
ABCD_1710,a,15,1,1,1000,982.1875,17.8125,1,2.43850112,114.5019789
ABCD_1710,a,16,1,0,1000,991.09375,8.90625,1,2.154073,116.6563859
ABCD_1710,a,17,1,1,1000,1008.90625,8.90625,0,2.237807989,118.894588
ABCD_1710,a,18,2,0,1000,951.09375,48.90625,0,1.937002897,120.8317919
ABCD_1710,a,19,3,0,1000,1088.90625,88.90625,1,2.77280283,123.604979
ABCD_1710,a,20,3,1,1000,1088.90625,88.90625,1,2.120358944,125.7257349
ABCD_1710,a,21,3,0,1000,1044.453125,44.453125,1,1.920569897,127.6466599
ABCD_1710,a,22,3,1,1000,955.546875,44.453125,1,2.471395016,130.118264
ABCD_1710,a,23,3,0,1000,977.7734375,22.2265625,1,2.4885571,132.607141
ABCD_1710,a,24,3,1,1000,977.7734375,22.2265625,1,2.77222085,135.37975
ABCD_1710,a,25,3,0,1000,988.8867188,11.11328125,0,2.755439997,138.1353929
ABCD_1710,a,26,4,0,1000,1051.113281,51.11328125,1,2.271311045,140.4068789
ABCD_1710,a,27,4,1,1000,948.8867188,51.11328125,1,2.237982035,142.645179
ABCD_1710,a,28,4,0,1000,1025.556641,25.55664063,1,2.60513711,145.250499
ABCD_1710,a,29,4,1,1000,1025.556641,25.55664063,1,2.254626036,147.505295
ABCD_1710,a,30,4,0,1000,987.2216797,12.77832031,1,2.171197176,149.6766639
ABCD_1710,a,31,4,1,1000,987.2216797,12.77832031,1,2.57197094,152.248816
ABCD_1710,a,32,4,0,1000,1006.38916,6.389160156,0,2.38877511,154.63781
ABCD_1710,a,33,5,0,1000,1031.38916,31.38916016,1,2.137208939,156.7753398
ABCD_1710,a,34,5,1,1000,1031.38916,31.38916016,1,2.053951979,158.8294909
ABCD_1710,a,35,5,0,1000,1015.69458,15.69458008,1,1.95399785,160.783659
ABCD_1710,a,36,5,1,1000,1015.69458,15.69458008,1,2.070822001,162.8546369
ABCD_1710,a,37,5,0,1000,1007.84729,7.847290039,1,1.954761028,164.8096628
ABCD_1710,a,38,5,1,1000,1007.84729,7.847290039,1,1.903036118,166.7128708
ABCD_1710,a,39,5,0,1000,1003.923645,3.92364502,1,2.054405928,168.767648
ABCD_1710,a,40,5,1,1000,996.076355,3.92364502,0,1.953699112,170.7215509
ABCD_1710,a,41,6,0,1000,1028.923645,28.92364502,0,2.538599014,173.2604458
ABCD_1710,a,42,7,0,1000,946.076355,53.92364502,1,2.755671978,176.01647
ABCD_1710,a,43,7,1,1000,1053.923645,53.92364502,1,2.939011097,178.9558868
ABCD_1710,a,44,7,0,1000,1026.961823,26.96182251,1,2.221096039,181.1773789
ABCD_1710,a,45,7,1,1000,1026.961823,26.96182251,1,2.154193163,183.3319168
ABCD_1710,a,46,7,0,1000,986.5190887,13.48091125,0,1.970492125,185.3026249
ABCD_1710,a,47,8,0,1000,961.5190887,38.48091125,1,3.373826981,188.676738
ABCD_1710,a,48,8,1,1000,961.5190887,38.48091125,1,2.053932905,190.7308679
ABCD_1710,a,49,8,0,1000,1019.240456,19.24045563,1,2.622174978,193.353364
ABCD_1710,a,50,8,1,1000,980.7595444,19.24045563,0,3.156388044,196.5101209
ABCD_1710,a,51,9,0,1000,1024.240456,24.24045563,0,2.755448103,199.2659199
ABCD_1710,a,52,10,0,1000,970.7595444,29.24045563,0,3.356827021,202.6230969
ABCD_1710,a,53,11,0,1000,965.7595444,34.24045563,1,2.438127995,205.0614209
ABCD_1710,a,54,11,1,1000,965.7595444,34.24045563,1,2.037488222,207.0991089
ABCD_1710,a,55,11,0,1000,982.8797722,17.12022781,1,2.404999971,209.504272
ABCD_1710,a,56,11,1,1000,1017.120228,17.12022781,1,3.223376036,212.7278059
ABCD_1710,a,57,11,0,1000,991.4398861,8.560113907,1,2.571957827,215.2999339
ABCD_1710,a,58,11,1,1000,1008.560114,8.560113907,1,2.171251059,217.471535
ABCD_1710,a,59,11,0,1000,1004.280057,4.280056953,1,2.421463966,219.8933499
ABCD_1710,a,60,11,1,1000,995.719943,4.280056953,0,2.070696115,221.964402
ABCD_1710,a,61,12,0,1000,990.719943,9.280056953,0,3.072799921,225.0374119
ABCD_1710,a,62,13,0,1000,1014.280057,14.28005695,0,2.705533028,227.7431059
ABCD_1710,a,63,14,0,1000,980.719943,19.28005695,1,2.956187963,230.699589
ABCD_1710,a,64,14,1,1000,980.719943,19.28005695,1,2.337969065,233.037761
ABCD_1710,a,65,14,0,1000,990.3599715,9.640028477,1,2.070893049,235.1088359
ABCD_1710,a,66,14,1,1000,990.3599715,9.640028477,1,2.070898056,237.179904
ABCD_1710,a,67,14,0,1000,995.1799858,4.820014238,1,2.372084141,239.5522389
ABCD_1710,a,68,14,1,1000,1004.820014,4.820014238,0,2.270740986,241.823153
ABCD_1710,a,69,15,0,1000,1009.820014,9.820014238,0,3.340350151,245.163836
ABCD_1710,a,70,16,0,1000,1014.820014,14.82001424,1,2.137345076,247.3013799
ABCD_1710,r,1,0,0,1362,1862,500,1,3.064116955,264.8892479
ABCD_1710,r,2,0,1,1763,1263,500,1,2.271198988,267.1607828
ABCD_1710,r,3,0,0,1348,1598,250,0,2.889195919,270.0503299
ABCD_1710,r,4,1,0,1245,1535,290,1,1.987153053,272.0378759
ABCD_1710,r,5,1,1,1501,1211,290,1,2.404629946,274.4426999
ABCD_1710,r,6,1,0,1255,1400,145,1,2.254701138,276.6975648
ABCD_1710,r,7,1,1,1410,1265,145,0,2.638771057,279.336509
ABCD_1710,r,8,2,0,1386,1201,185,1,4.208856106,283.5457258
ABCD_1710,r,9,2,1,1318,1133,185,1,2.738787889,286.2848809
ABCD_1710,r,10,2,0,1207,1299.5,92.5,1,2.254293919,288.5393779
ABCD_1710,r,11,2,1,1421.5,1329,92.5,1,2.187959194,290.72769
ABCD_1710,r,12,2,0,1055.25,1009,46.25,0,2.521646976,293.2497249
ABCD_1710,r,13,3,0,1346.25,1260,86.25,1,2.738742828,295.9886658
ABCD_1710,r,14,3,1,1358,1444.25,86.25,1,3.156578064,299.1454179
ABCD_1710,r,15,3,0,1438.125,1395,43.125,0,2.137760162,301.283541
ABCD_1710,r,16,4,0,1370.125,1287,83.125,1,2.321156979,303.604897
ABCD_1710,r,17,4,1,1213,1296.125,83.125,1,1.970800877,305.5760629
ABCD_1710,r,18,4,0,1341.5625,1300,41.5625,1,3.490336895,309.0667238
ABCD_1710,r,19,4,1,1150,1191.5625,41.5625,0,2.855809927,311.9229319
ABCD_1710,r,20,5,0,1132.5625,1066,66.5625,1,2.50487709,314.4280179
ABCD_1710,r,21,5,1,1296.5625,1230,66.5625,0,2.187825918,316.6160128
ABCD_1710,r,22,6,0,1137,1228.5625,91.5625,1,2.404936075,319.021116
ABCD_1710,r,23,6,1,1185.5625,1094,91.5625,1,2.505177021,321.5264099
ABCD_1710,r,24,6,0,1305,1350.78125,45.78125,1,2.521900892,324.0484169
ABCD_1710,r,25,6,1,1277.78125,1232,45.78125,0,3.156615973,327.2051508
ABCD_1710,r,26,7,0,1298,1368.78125,70.78125,1,2.471879005,329.677192
ABCD_1710,r,27,7,1,1187,1257.78125,70.78125,0,2.354882002,332.0322599
ABCD_1710,r,28,8,0,1325.78125,1230,95.78125,1,2.989537954,335.0219619
ABCD_1710,r,29,8,1,1127.78125,1032,95.78125,1,2.80577898,337.8279018
ABCD_1710,r,30,8,0,1168,1215.890625,47.890625,1,2.288105011,340.1163719
ABCD_1710,r,31,8,1,1086,1133.890625,47.890625,1,2.137328148,342.2538719
ABCD_1710,r,32,8,0,1338.945313,1315,23.9453125,0,2.705831051,344.9598119
ABCD_1710,r,33,9,0,1238.945313,1210,28.9453125,0,3.022919178,347.982872
ABCD_1710,r,34,10,0,1316.945313,1283,33.9453125,0,2.822596073,350.805836
ABCD_1710,r,35,11,0,1307.945313,1269,38.9453125,1,2.087325096,352.8933699
ABCD_1710,r,36,11,1,1039,1077.945313,38.9453125,0,2.92272687,355.816268
ABCD_1710,r,37,12,0,1389.945313,1346,43.9453125,0,3.356933117,359.1733189
ABCD_1710,r,38,13,0,1175,1223.945313,48.9453125,0,2.471844196,361.6453249
ABCD_1710,r,39,14,0,1293,1346.945313,53.9453125,1,2.672163963,364.317749
ABCD_1710,r,40,14,1,1201,1254.945313,53.9453125,1,2.020930052,366.3390388
ABCD_1710,r,41,14,0,1378,1404.972656,26.97265625,1,2.003698111,368.342952
ABCD_1710,r,42,14,1,1319,1345.972656,26.97265625,1,1.98734808,370.3306909
ABCD_1710,r,43,14,0,1316,1329.486328,13.48632813,1,2.087454081,372.418349
ABCD_1710,r,44,14,1,1185,1198.486328,13.48632813,1,2.054207087,374.4727519
ABCD_1710,r,45,14,0,1221.743164,1215,6.743164063,0,1.98740387,376.460516
ABCD_1710,r,46,15,0,1356.743164,1345,11.74316406,1,2.788922071,379.249809
ABCD_1710,r,47,15,1,1331,1342.743164,11.74316406,0,2.187553883,381.4375839
ABCD_1710,r,48,16,0,1093,1109.743164,16.74316406,0,2.789108038,384.227026
ABCD_1715,a,1,0,0,1000,1500,500,0,3.793749094,84.563555
ABCD_1715,a,2,1,0,1000,1540,540,1,3.607170105,88.17093611
ABCD_1715,a,3,1,1,1000,1540,540,1,2.605396986,90.77666616
ABCD_1715,a,4,1,0,1000,730,270,1,2.488233089,93.2651062
ABCD_1715,a,5,1,1,1000,730,270,1,2.338180065,95.60345507
ABCD_1715,a,6,1,0,1000,865,135,0,3.006157875,98.60978103
ABCD_1715,a,7,2,0,1000,825,175,1,3.190048933,101.800004
ABCD_1715,a,8,2,1,1000,1175,175,1,2.906014919,104.7061882
ABCD_1715,a,9,2,0,1000,1087.5,87.5,1,3.390435934,108.0967922
ABCD_1715,a,10,2,1,1000,912.5,87.5,1,3.340744972,111.4377511
ABCD_1715,a,11,2,0,1000,1043.75,43.75,1,2.471313953,113.9094422
ABCD_1715,a,12,2,1,1000,1043.75,43.75,0,3.289855957,117.1995091
ABCD_1715,a,13,3,0,1000,916.25,83.75,1,2.638859034,119.8386991
ABCD_1715,a,14,3,1,1000,916.25,83.75,1,2.187654018,122.0267241
ABCD_1715,a,15,3,0,1000,1041.875,41.875,1,2.221014977,124.248136
ABCD_1715,a,16,3,1,1000,958.125,41.875,1,2.504957914,126.7534451
ABCD_1715,a,17,3,0,1000,1020.9375,20.9375,1,3.256577015,130.0104222
ABCD_1715,a,18,3,1,1000,979.0625,20.9375,0,2.989272118,133.0000451
ABCD_1715,a,19,4,0,1000,939.0625,60.9375,1,2.120848894,135.12134
ABCD_1715,a,20,4,1,1000,939.0625,60.9375,1,2.237631083,137.3591752
ABCD_1715,a,21,4,0,1000,969.53125,30.46875,1,2.137779951,139.4973142
ABCD_1715,a,22,4,1,1000,1030.46875,30.46875,1,2.003869057,141.501579
ABCD_1715,a,23,4,0,1000,984.765625,15.234375,1,3.557252884,145.0591841
ABCD_1715,a,24,4,1,1000,1015.234375,15.234375,1,2.538287878,147.5978181
ABCD_1715,a,25,4,0,1000,1007.617188,7.6171875,1,3.490537882,151.0885532
ABCD_1715,a,26,4,1,1000,1007.617188,7.6171875,1,2.638725996,153.7275941
ABCD_1715,a,27,4,0,1000,996.1914063,3.80859375,0,2.321284056,156.0491931
ABCD_1715,a,28,5,0,1000,1028.808594,28.80859375,1,2.471540928,158.5209322
ABCD_1715,a,29,5,1,1000,971.1914063,28.80859375,1,2.371530056,160.8926451
ABCD_1715,a,30,5,0,1000,985.5957031,14.40429688,0,2.572049856,163.4650121
ABCD_1715,a,31,6,0,1000,960.5957031,39.40429688,1,2.221007109,165.686223
ABCD_1715,a,32,6,1,1000,1039.404297,39.40429688,1,2.772505045,168.4590771
ABCD_1715,a,33,6,0,1000,980.2978516,19.70214844,0,3.122916937,171.5822001
ABCD_1715,a,34,7,0,1000,1044.702148,44.70214844,1,2.288061857,173.87064
ABCD_1715,a,35,7,1,1000,1044.702148,44.70214844,1,2.554944992,176.4257851
ABCD_1715,a,36,7,0,1000,1022.351074,22.35107422,1,2.271278858,178.697427
ABCD_1715,a,37,7,1,1000,1022.351074,22.35107422,1,2.538571119,181.2363892
ABCD_1715,a,38,7,0,1000,1011.175537,11.17553711,1,2.42128706,183.6578832
ABCD_1715,a,39,7,1,1000,988.8244629,11.17553711,1,2.388288021,186.0463262
ABCD_1715,a,40,7,0,1000,1005.587769,5.587768555,0,2.605421066,188.6521211
ABCD_1715,a,41,8,0,1000,1030.587769,30.58776855,1,2.204246998,190.8565781
ABCD_1715,a,42,8,1,1000,1030.587769,30.58776855,1,2.304757118,193.1615112
ABCD_1715,a,43,8,0,1000,1015.293884,15.29388428,1,2.121467829,195.2834122
ABCD_1715,a,44,8,1,1000,984.7061157,15.29388428,1,2.30397892,197.587584
ABCD_1715,a,45,8,0,1000,1007.646942,7.646942139,1,2.237941027,199.8256991
ABCD_1715,a,46,8,1,1000,992.3530579,7.646942139,1,2.405045033,202.2310832
ABCD_1715,a,47,8,0,1000,1003.823471,3.823471069,0,2.337966919,204.569422
ABCD_1715,a,48,9,0,1000,991.1765289,8.823471069,1,3.573840857,208.1436012
ABCD_1715,a,49,9,1,1000,991.1765289,8.823471069,1,2.438279152,210.5822301
ABCD_1715,a,50,9,0,1000,1004.411736,4.411735535,1,2.154124022,212.736551
ABCD_1715,a,51,9,1,1000,995.5882645,4.411735535,1,2.655557871,215.3924711
ABCD_1715,a,52,9,0,1000,997.7941322,2.205867767,1,3.557157993,218.949944
ABCD_1715,a,53,9,1,1000,997.7941322,2.205867767,0,2.705456972,221.655617
ABCD_1715,a,54,10,0,1000,1007.205868,7.205867767,1,2.271321058,223.927114
ABCD_1715,a,55,10,1,1000,992.7941322,7.205867767,0,2.387984037,226.3158522
ABCD_1715,a,56,11,0,1000,987.7941322,12.20586777,1,2.487949133,228.8040011
ABCD_1715,a,57,11,1,1000,1012.205868,12.20586777,0,2.371721029,231.1758971
ABCD_1715,a,58,12,0,1000,1017.205868,17.20586777,1,2.889298916,234.0653162
ABCD_1715,a,59,12,1,1000,982.7941322,17.20586777,1,2.605480909,236.670958
ABCD_1715,a,60,12,0,1000,1008.602934,8.602933884,1,2.288097858,238.9594202
ABCD_1715,a,61,12,1,1000,1008.602934,8.602933884,1,2.17097497,241.1307621
ABCD_1715,a,62,12,0,1000,995.6985331,4.301466942,0,3.289904833,244.4208622
ABCD_1715,a,63,13,0,1000,990.6985331,9.301466942,1,3.557366133,247.9783921
ABCD_1715,a,64,13,1,1000,1009.301467,9.301466942,1,3.507337093,251.4858942
ABCD_1715,a,65,13,0,1000,995.3492665,4.650733471,1,2.989518166,254.4755621
ABCD_1715,a,66,13,1,1000,995.3492665,4.650733471,1,2.90605402,257.3817761
ABCD_1715,a,67,13,0,1000,997.6746333,2.325366735,1,3.540705919,260.9226561
ABCD_1715,a,68,13,1,1000,1002.325367,2.325366735,0,3.991707087,264.914535
ABCD_1715,a,69,14,0,1000,1007.325367,7.325366735,1,3.490592003,268.405292
ABCD_1715,a,70,14,1,1000,992.6746333,7.325366735,0,2.672315836,271.0779622
ABCD_1715,r,1,0,0,1810,1310,500,1,4.528411865,278.0093541
ABCD_1715,r,2,0,1,1223,1723,500,1,4.308749914,282.3184941
ABCD_1715,r,3,0,0,1599,1349,250,1,2.538383007,284.8572512
ABCD_1715,r,4,0,1,1548,1298,250,1,2.47140193,287.3288541
ABCD_1715,r,5,0,0,1476,1351,125,0,2.471942902,289.8011591
ABCD_1715,r,6,1,0,1221,1056,165,1,2.538151026,292.339524
ABCD_1715,r,7,1,1,1222,1057,165,1,2.605561972,294.9454341
ABCD_1715,r,8,1,0,1129.5,1047,82.5,1,2.838909864,297.7845452
ABCD_1715,r,9,1,1,1309.5,1227,82.5,0,2.605480909,300.3903511
ABCD_1715,r,10,2,0,1396,1518.5,122.5,0,2.254415035,302.6449611
ABCD_1715,r,11,3,0,1078,1240.5,162.5,1,4.008445978,306.6537411
ABCD_1715,r,12,3,1,1546.5,1384,162.5,0,3.423611164,310.0777421
ABCD_1715,r,13,4,0,1387.5,1185,202.5,1,2.538137913,312.6160581
ABCD_1715,r,14,4,1,1484.5,1282,202.5,0,3.991848946,316.608114
ABCD_1715,r,15,5,0,1285.5,1058,227.5,1,3.123136044,319.7314322
ABCD_1715,r,16,5,1,1097,1324.5,227.5,0,3.691015005,323.4226301
ABCD_1715,r,17,6,0,1022,1274.5,252.5,1,2.889271021,326.3120732
ABCD_1715,r,18,6,1,1088,1340.5,252.5,1,3.273476839,329.5857041
ABCD_1715,r,19,6,0,1212,1338.25,126.25,1,2.956604004,332.5426581
ABCD_1715,r,20,6,1,1103,1229.25,126.25,0,2.404397964,334.9473641
ABCD_1715,r,21,7,0,1498.25,1347,151.25,0,2.237702131,337.185271
ABCD_1715,r,22,8,0,1224,1400.25,176.25,0,2.872548819,340.0579991
ABCD_1715,r,23,9,0,1306,1487.25,181.25,1,2.622677803,342.6808872
ABCD_1715,r,24,9,1,1503.25,1322,181.25,1,2.354346037,345.0356011
ABCD_1715,r,25,9,0,1131,1221.625,90.625,1,4.091477871,349.1272762
ABCD_1715,r,26,9,1,1119,1209.625,90.625,1,3.674567938,352.802181
ABCD_1715,r,27,9,0,1062.3125,1017,45.3125,1,3.440173149,356.2425442
ABCD_1715,r,28,9,1,1046.3125,1001,45.3125,1,2.254657984,358.4973731
ABCD_1715,r,29,9,0,1367.65625,1345,22.65625,1,2.588601112,361.0861571
ABCD_1715,r,30,9,1,1082.65625,1060,22.65625,1,2.321425915,363.4077601
ABCD_1715,r,31,9,0,1215,1226.328125,11.328125,1,2.97291398,366.3808422
ABCD_1715,r,32,9,1,1086.328125,1075,11.328125,0,3.023005962,369.4042032
ABCD_1715,r,33,10,0,1074,1090.328125,16.328125,0,2.271080971,371.675462
ABCD_1715,r,34,11,0,1020,1041.328125,21.328125,0,3.190036058,374.8656771
ABCD_1715,r,35,12,0,1339.328125,1313,26.328125,1,4.141947985,379.007796
ABCD_1715,r,36,12,1,1289.328125,1263,26.328125,1,3.306857109,382.314779
ABCD_1715,r,37,12,0,1249.164063,1236,13.1640625,1,3.440584898,385.7555382
ABCD_1715,r,38,12,1,1180,1193.164063,13.1640625,0,3.256825209,389.0127201
ABCD_1715,r,39,13,0,1250.164063,1232,18.1640625,0,2.738812923,391.751909
ABCD_1715,r,40,14,0,1033.164063,1010,23.1640625,1,2.538316011,394.2904272
ABCD_1715,r,41,14,1,1221.164063,1198,23.1640625,0,2.721892118,397.0128851
ABCD_1715,r,42,15,0,1037.164063,1009,28.1640625,1,3.473974943,400.487195
ABCD_1715,r,43,15,1,1265.164063,1237,28.1640625,0,3.339977026,403.827378
ABCD_1715,r,44,16,0,1087.164063,1054,33.1640625,1,3.674320936,407.5018702
ABCD_1715,r,45,16,1,1136.164063,1103,33.1640625,0,3.457241058,410.9592712
ABCD_1718,a,1,0,0,1000,1500,500,1,3.126372099,34.44326687
ABCD_1718,a,2,0,1,1000,500,500,0,3.440224886,37.88371682
ABCD_1718,a,3,1,0,1000,1540,540,1,2.404928923,40.28881598
ABCD_1718,a,4,1,1,1000,1540,540,1,2.471839905,42.76087999
ABCD_1718,a,5,1,0,1000,730,270,1,3.156474829,45.91772294
ABCD_1718,a,6,1,1,1000,730,270,1,2.788892984,48.70696902
ABCD_1718,a,7,1,0,1000,1135,135,1,3.173028946,51.88014793
ABCD_1718,a,8,1,1,1000,1135,135,1,2.488469839,54.36899996
ABCD_1718,a,9,1,0,1000,1067.5,67.5,1,1.820276022,56.18964887
ABCD_1718,a,10,1,1,1000,932.5,67.5,0,3.724204063,59.91419888
ABCD_1718,a,11,2,0,1000,892.5,107.5,1,2.8055861,62.71998596
ABCD_1718,a,12,2,1,1000,892.5,107.5,1,2.121088982,64.84140682
ABCD_1718,a,13,2,0,1000,946.25,53.75,0,3.256605864,68.09840894
ABCD_1718,a,14,3,0,1000,906.25,93.75,1,2.204313993,70.30311894
ABCD_1718,a,15,3,1,1000,1093.75,93.75,1,2.471356153,72.77467084
ABCD_1718,a,16,3,0,1000,953.125,46.875,1,3.340261936,76.11510301
ABCD_1718,a,17,3,1,1000,953.125,46.875,1,2.488630056,78.6040678
ABCD_1718,a,18,3,0,1000,1023.4375,23.4375,1,2.204335928,80.80879498
ABCD_1718,a,19,3,1,1000,976.5625,23.4375,1,2.789026022,83.59815693
ABCD_1718,a,20,3,0,1000,1011.71875,11.71875,0,4.124927998,87.72328591
ABCD_1718,a,21,4,0,1000,1051.71875,51.71875,1,2.321527004,90.0451858
ABCD_1718,a,22,4,1,1000,1051.71875,51.71875,1,3.00591588,93.051301
ABCD_1718,a,23,4,0,1000,1025.859375,25.859375,1,2.739094973,95.79071283
ABCD_1718,a,24,4,1,1000,1025.859375,25.859375,1,2.321336985,98.11240101
ABCD_1718,a,25,4,0,1000,1012.929688,12.9296875,0,2.671946049,100.7847278
ABCD_1718,a,26,5,0,1000,962.0703125,37.9296875,1,2.187491894,102.9727139
ABCD_1718,a,27,5,1,1000,1037.929688,37.9296875,1,2.270957947,105.2438729
ABCD_1718,a,28,5,0,1000,981.0351563,18.96484375,1,2.404922962,107.6489079
ABCD_1718,a,29,5,1,1000,981.0351563,18.96484375,1,3.140100956,110.78931
ABCD_1718,a,30,5,0,1000,990.5175781,9.482421875,0,4.358941078,115.1484439
ABCD_1718,a,31,6,0,1000,1034.482422,34.48242188,1,2.555271864,117.703892
ABCD_1718,a,32,6,1,1000,1034.482422,34.48242188,1,2.521868944,120.225929
ABCD_1718,a,33,6,0,1000,982.7587891,17.24121094,1,2.254631996,122.4808688
ABCD_1718,a,34,6,1,1000,1017.241211,17.24121094,1,2.354658127,124.835731
ABCD_1718,a,35,6,0,1000,991.3793945,8.620605469,1,3.82468009,128.6605749
ABCD_1718,a,36,6,1,1000,1008.620605,8.620605469,1,2.872637033,131.533545
ABCD_1718,a,37,6,0,1000,995.6896973,4.310302734,1,2.621870041,134.1555719
ABCD_1718,a,38,6,1,1000,995.6896973,4.310302734,1,2.371560812,136.5273159
ABCD_1718,a,39,6,0,1000,997.8448486,2.155151367,1,2.956261158,139.483917
ABCD_1718,a,40,6,1,1000,1002.155151,2.155151367,0,2.137588978,141.6218519
ABCD_1718,a,41,7,0,1000,972.8448486,27.15515137,1,2.471411943,144.0936129
ABCD_1718,a,42,7,1,1000,1027.155151,27.15515137,1,2.070713043,146.164536
ABCD_1718,a,43,7,0,1000,1013.577576,13.57757568,0,4.342478037,150.507395
ABCD_1718,a,44,8,0,1000,1038.577576,38.57757568,1,2.438222885,152.9459898
ABCD_1718,a,45,8,1,1000,961.4224243,38.57757568,1,2.304399967,155.2505879
ABCD_1718,a,46,8,0,1000,1019.288788,19.28878784,1,3.674401045,158.92535
ABCD_1718,a,47,8,1,1000,980.7112122,19.28878784,0,2.62184,161.547586
ABCD_1718,a,48,9,0,1000,1024.288788,24.28878784,1,2.154148102,163.701937
ABCD_1718,a,49,9,1,1000,975.7112122,24.28878784,1,3.106456041,166.808568
ABCD_1718,a,50,9,0,1000,987.8556061,12.14439392,1,3.290146112,170.098825
ABCD_1718,a,51,9,1,1000,1012.144394,12.14439392,0,3.941719055,174.0409088
ABCD_1718,a,52,10,0,1000,982.8556061,17.14439392,1,2.588283062,176.62959
ABCD_1718,a,53,10,1,1000,982.8556061,17.14439392,1,2.689231873,179.3192458
ABCD_1718,a,54,10,0,1000,1008.572197,8.57219696,1,2.270610094,181.5900309
ABCD_1718,a,55,10,1,1000,1008.572197,8.57219696,1,2.30476594,183.895174
ABCD_1718,a,56,10,0,1000,995.7139015,4.28609848,1,2.605268002,186.500828
ABCD_1718,a,57,10,1,1000,995.7139015,4.28609848,1,3.757600069,190.2588019
ABCD_1718,a,58,10,0,1000,1002.143049,2.14304924,1,2.488157034,192.7471559
ABCD_1718,a,59,10,1,1000,1002.143049,2.14304924,0,2.855944157,195.6032629
ABCD_1718,a,60,11,0,1000,992.8569508,7.14304924,1,3.942180872,199.5456789
ABCD_1718,a,61,11,1,1000,1007.143049,7.14304924,1,2.304146051,201.850162
ABCD_1718,a,62,11,0,1000,996.4284754,3.57152462,1,2.304456949,204.1548278
ABCD_1718,a,63,11,1,1000,996.4284754,3.57152462,1,2.488332033,206.643265
ABCD_1718,a,64,11,0,1000,998.2142377,1.78576231,0,3.307098866,209.950537
ABCD_1718,a,65,12,0,1000,1006.785762,6.78576231,1,2.42180109,212.372664
ABCD_1718,a,66,12,1,1000,993.2142377,6.78576231,1,4.008234024,216.3811169
ABCD_1718,a,67,12,0,1000,1003.392881,3.392881155,0,3.54050684,219.9217949
ABCD_1718,a,68,13,0,1000,991.6071188,8.392881155,1,3.490556955,223.4125459
ABCD_1718,a,69,13,1,1000,991.6071188,8.392881155,1,2.705693007,226.1185529
ABCD_1718,a,70,13,0,1000,995.8035594,4.196440578,1,2.454767942,228.5736659
ABCD_1718,r,1,0,0,1878,1378,500,1,2.711571217,234.3360898
ABCD_1718,r,2,0,1,1124,1624,500,1,2.104025126,236.4403138
ABCD_1718,r,3,0,0,1335,1085,250,1,2.454970837,238.8955989
ABCD_1718,r,4,0,1,1392,1142,250,1,3.12314415,242.0189419
ABCD_1718,r,5,0,0,1170,1295,125,1,3.32354188,245.342648
ABCD_1718,r,6,0,1,1348,1223,125,1,3.824616909,249.167434
ABCD_1718,r,7,0,0,1356,1418.5,62.5,1,2.438642979,251.6062939
ABCD_1718,r,8,0,1,1433.5,1371,62.5,0,3.206353188,254.81283
ABCD_1718,r,9,1,0,1363.5,1261,102.5,1,3.690888166,258.5038228
ABCD_1718,r,10,1,1,1458.5,1356,102.5,1,2.973239899,261.4773109
ABCD_1718,r,11,1,0,1053.25,1002,51.25,0,3.172950983,264.6504409
ABCD_1718,r,12,2,0,1192,1283.25,91.25,1,2.455107927,267.1057138
ABCD_1718,r,13,2,1,1370.25,1279,91.25,1,3.557424784,270.663461
ABCD_1718,r,14,2,0,1176.625,1131,45.625,1,3.039398193,273.7030609
ABCD_1718,r,15,2,1,1269.625,1224,45.625,1,2.204507828,275.9077139
ABCD_1718,r,16,2,0,1084,1106.8125,22.8125,0,3.858211041,279.7660689
ABCD_1718,r,17,3,0,1042,1104.8125,62.8125,1,2.271311998,282.0377078
ABCD_1718,r,18,3,1,1271.8125,1209,62.8125,0,2.92257309,284.960489
ABCD_1718,r,19,4,0,1050,1152.8125,102.8125,1,2.438264847,287.398896
ABCD_1718,r,20,4,1,1279,1381.8125,102.8125,1,2.605479002,290.0046909
ABCD_1718,r,21,4,0,1089.40625,1038,51.40625,0,3.273205996,293.278338
ABCD_1718,r,22,5,0,1318,1394.40625,76.40625,1,2.855671167,296.1342139
ABCD_1718,r,23,5,1,1314,1390.40625,76.40625,1,2.037595987,298.1721709
ABCD_1718,r,24,5,0,1274,1312.203125,38.203125,1,2.655261993,300.8276339
ABCD_1718,r,25,5,1,1275,1313.203125,38.203125,1,1.953907013,302.781708
ABCD_1718,r,26,5,0,1194.101563,1175,19.1015625,0,3.791236162,306.5731249
ABCD_1718,r,27,6,0,1062.101563,1018,44.1015625,NA,0,311.149431
ABCD_1718,r,28,6,0,1401.101563,1357,44.1015625,1,3.524124861,314.6737299
ABCD_1718,r,29,6,1,1065,1109.101563,44.1015625,1,2.889383078,317.5634749
ABCD_1718,r,30,6,0,1061,1083.050781,22.05078125,1,2.237658024,319.8013289
ABCD_1718,r,31,6,1,1034.050781,1012,22.05078125,1,2.588703156,322.3902009
ABCD_1718,r,32,6,0,1385,1396.025391,11.02539063,0,3.340291023,325.7306728
ABCD_1718,r,33,7,0,1040.025391,1004,36.02539063,1,2.672190905,328.4030368
ABCD_1718,r,34,7,1,1375,1411.025391,36.02539063,1,2.171114922,330.5743179
ABCD_1718,r,35,7,0,1273,1291.012695,18.01269531,0,2.538579941,333.1130688
ABCD_1718,r,36,8,0,1269,1312.012695,43.01269531,1,2.4717381,335.5849819
ABCD_1718,r,37,8,1,1277,1320.012695,43.01269531,1,2.304785013,337.8900568
ABCD_1718,r,38,8,0,1217,1238.506348,21.50634766,0,3.55723691,341.4475129
ABCD_1718,r,39,9,0,1013,1039.506348,26.50634766,0,3.189899921,344.637763
ABCD_1718,r,40,10,0,1140.506348,1109,31.50634766,1,2.856162071,347.4940948
ABCD_1718,r,41,10,1,1338.506348,1307,31.50634766,1,2.287652969,349.7819009
ABCD_1718,r,42,10,0,1166.753174,1151,15.75317383,1,2.555310965,352.337507
ABCD_1718,r,43,10,1,1189.753174,1174,15.75317383,1,2.605195999,354.942899
ABCD_1718,r,44,10,0,1290,1297.876587,7.876586914,0,2.271409035,357.214469
ABCD_1718,r,45,11,0,1378,1390.876587,12.87658691,1,2.471713066,359.6863539
ABCD_1718,r,46,11,1,1266,1278.876587,12.87658691,1,4.20883584,363.8953679
ABCD_1718,r,47,11,0,1128.438293,1122,6.438293457,NA,0,368.4717278
ABCD_1718,r,48,11,0,1145.438293,1139,6.438293457,0,3.323636055,371.7955439
ABCD_1718,r,49,12,0,1097,1108.438293,11.43829346,1,4.225518942,376.0212278
ABCD_1718,r,50,12,1,1126.438293,1115,11.43829346,0,3.239919901,379.261956
ABCD_1718,r,51,13,0,1228,1244.438293,16.43829346,0,3.707242966,382.9694889
ABCD_1718,r,52,14,0,1267,1288.438293,21.43829346,1,2.104115963,385.0738008
ABCD_1718,r,53,14,1,1336.438293,1315,21.43829346,0,3.273607016,388.3476138
ABCD_1718,r,54,15,0,1283.438293,1257,26.43829346,0,3.791106939,392.1388869
ABCD_1718,r,55,16,0,1369,1400.438293,31.43829346,1,2.839172125,394.97822
ABCD_1718,r,56,16,1,1388.438293,1357,31.43829346,NA,0,399.5546129
ABCD_1718,r,57,16,1,1234.438293,1203,31.43829346,1,2.321500063,401.8762908
ABCD_1718,r,58,16,0,1059.719147,1044,15.71914673,1,2.505171061,404.3816369
ABCD_1718,r,59,16,1,1355.719147,1340,15.71914673,0,2.839097023,407.2208409
ABCD_1734,a,1,0,0,1000,500,500,1,2.541568995,46.71655703
ABCD_1734,a,2,0,1,1000,500,500,1,2.204294205,48.9210422
ABCD_1734,a,3,0,0,1000,750,250,1,2.004724979,50.92635012
ABCD_1734,a,4,0,1,1000,1250,250,0,1.953063011,52.87976718
ABCD_1734,a,5,1,0,1000,710,290,1,2.271107912,55.15107417
ABCD_1734,a,6,1,1,1000,710,290,1,1.61996603,56.77135205
ABCD_1734,a,7,1,0,1000,1145,145,1,2.3880198,59.15956616
ABCD_1734,a,8,1,1,1000,855,145,1,2.154833078,61.31477714
ABCD_1734,a,9,1,0,1000,927.5,72.5,1,2.65495491,63.97007704
ABCD_1734,a,10,1,1,1000,1072.5,72.5,1,2.104034901,66.07424617
ABCD_1734,a,11,1,0,1000,963.75,36.25,1,2.571875095,68.64622402
ABCD_1734,a,12,1,1,1000,1036.25,36.25,1,2.255291939,70.90191221
ABCD_1734,a,13,1,0,1000,1018.125,18.125,1,2.487759113,73.38988304
ABCD_1734,a,14,1,1,1000,1018.125,18.125,1,2.20458889,75.59470916
ABCD_1734,a,15,1,0,1000,990.9375,9.0625,0,2.120983124,77.71601701
ABCD_1734,a,16,2,0,1000,950.9375,49.0625,1,2.304553986,80.02076316
ABCD_1734,a,17,2,1,1000,1049.0625,49.0625,1,2.538697004,82.55979109
ABCD_1734,a,18,2,0,1000,975.46875,24.53125,1,2.638461828,85.19844007
ABCD_1734,a,19,2,1,1000,975.46875,24.53125,1,2.638818026,87.83756304
ABCD_1734,a,20,2,0,1000,987.734375,12.265625,1,2.304647923,90.14257216
ABCD_1734,a,21,2,1,1000,1012.265625,12.265625,1,2.004314184,92.14734912
ABCD_1734,a,22,2,0,1000,1006.132813,6.1328125,1,2.404101849,94.55179
ABCD_1734,a,23,2,1,1000,993.8671875,6.1328125,0,2.020784855,96.5729301
ABCD_1734,a,24,3,0,1000,1046.132813,46.1328125,0,2.187591076,98.7608552
ABCD_1734,a,25,4,0,1000,913.8671875,86.1328125,0,2.003974915,100.7652111
ABCD_1734,a,26,5,0,1000,888.8671875,111.1328125,1,2.254413128,103.0199721
ABCD_1734,a,27,5,1,1000,888.8671875,111.1328125,1,2.438141108,105.458302
ABCD_1734,a,28,5,0,1000,1055.566406,55.56640625,1,2.354816914,107.8132882
ABCD_1734,a,29,5,1,1000,1055.566406,55.56640625,1,2.555231094,110.368685
ABCD_1734,a,30,5,0,1000,972.2167969,27.78320313,0,2.238070011,112.6070621
ABCD_1734,a,31,6,0,1000,947.2167969,52.78320313,1,2.321238041,114.9285052
ABCD_1734,a,32,6,1,1000,947.2167969,52.78320313,1,2.121089935,117.0499282
ABCD_1734,a,33,6,0,1000,973.6083984,26.39160156,1,2.187599897,119.2377381
ABCD_1734,a,34,6,1,1000,1026.391602,26.39160156,0,2.020822048,121.2589171
ABCD_1734,a,35,7,0,1000,948.6083984,51.39160156,1,2.488309145,123.7475891
ABCD_1734,a,36,7,1,1000,948.6083984,51.39160156,1,2.321142912,126.0689321
ABCD_1734,a,37,7,0,1000,1025.695801,25.69580078,1,2.655473948,128.7245722
ABCD_1734,a,38,7,1,1000,974.3041992,25.69580078,1,2.7891469,131.5140252
ABCD_1734,a,39,7,0,1000,1012.8479,12.84790039,0,2.621918917,134.1361511
ABCD_1734,a,40,8,0,1000,1037.8479,37.84790039,1,2.054181814,136.1905022
ABCD_1734,a,41,8,1,1000,962.1520996,37.84790039,1,2.121033907,138.3116622
ABCD_1734,a,42,8,0,1000,1018.92395,18.9239502,1,2.204566956,140.5163891
ABCD_1734,a,43,8,1,1000,1018.92395,18.9239502,0,2.020925999,142.5376332
ABCD_1734,a,44,9,0,1000,976.0760498,23.9239502,0,2.371308088,144.909322
ABCD_1734,a,45,10,0,1000,1028.92395,28.9239502,0,2.070585012,146.9803181
ABCD_1734,a,46,11,0,1000,1033.92395,33.9239502,1,2.137591124,149.1181381
ABCD_1734,a,47,11,1,1000,1033.92395,33.9239502,1,2.287919044,151.4064291
ABCD_1734,a,48,11,0,1000,1016.961975,16.9619751,0,2.388082981,153.7946501
ABCD_1734,a,49,12,0,1000,978.0380249,21.9619751,0,2.020776033,155.815593
ABCD_1734,a,50,13,0,1000,973.0380249,26.9619751,1,2.087773085,157.9035232
ABCD_1734,a,51,13,1,1000,973.0380249,26.9619751,1,2.638777018,160.5424621
ABCD_1734,a,52,13,0,1000,1013.480988,13.48098755,1,2.304793119,162.8475881
ABCD_1734,a,53,13,1,1000,1013.480988,13.48098755,1,2.371700048,165.2197082
ABCD_1734,a,54,13,0,1000,1006.740494,6.740493774,1,2.521273136,167.7413702
ABCD_1734,a,55,13,1,1000,1006.740494,6.740493774,1,2.420569897,170.1629682
ABCD_1734,a,56,13,0,1000,1003.370247,3.370246887,1,2.304764986,172.4678931
ABCD_1734,a,57,13,1,1000,1003.370247,3.370246887,1,1.937373161,174.4056501
ABCD_1734,a,58,13,0,1000,998.3148766,1.685123444,0,1.953742981,176.3597851
ABCD_1734,a,59,14,0,1000,993.3148766,6.685123444,1,1.769990921,178.1299751
ABCD_1734,a,60,14,1,1000,1006.685123,6.685123444,0,2.020858049,180.151149
ABCD_1734,a,61,15,0,1000,1011.685123,11.68512344,NA,0,184.7272
ABCD_1734,a,62,15,0,1000,988.3148766,11.68512344,1,2.254727125,186.982095
ABCD_1734,a,63,15,1,1000,1011.685123,11.68512344,0,3.557531834,190.5399692
ABCD_1734,a,64,16,0,1000,1016.685123,16.68512344,1,2.154291868,192.6946051
ABCD_1734,a,65,16,1,1000,983.3148766,16.68512344,0,2.254477978,194.9494691
ABCD_1734,r,1,0,0,1374,1874,500,1,4.147307158,200.5110371
ABCD_1734,r,2,0,1,1188,1688,500,1,2.204560995,202.7157521
ABCD_1734,r,3,0,0,1452,1202,250,1,2.304774046,205.0208771
ABCD_1734,r,4,0,1,1559,1309,250,1,2.504928112,207.526098
ABCD_1734,r,5,0,0,1503,1378,125,0,2.337900162,209.86432
ABCD_1734,r,6,1,0,1304,1469,165,1,2.321391106,212.185909
ABCD_1734,r,7,1,1,1507,1342,165,0,1.987423897,214.1736462
ABCD_1734,r,8,2,0,1222,1427,205,0,2.020639181,216.1944792
ABCD_1734,r,9,3,0,1286,1041,245,1,2.521903992,218.7165442
ABCD_1734,r,10,3,1,1133,1378,245,1,2.087641954,220.8045201
ABCD_1734,r,11,3,0,1140.5,1018,122.5,1,2.237668037,223.042392
ABCD_1734,r,12,3,1,1359.5,1237,122.5,1,2.388350964,225.4310882
ABCD_1734,r,13,3,0,1077,1138.25,61.25,0,2.588716984,228.0200601
ABCD_1734,r,14,4,0,1399.25,1298,101.25,1,2.755316973,230.7755511
ABCD_1734,r,15,4,1,1429.25,1328,101.25,0,2.32148385,233.0973532
ABCD_1734,r,16,5,0,1226.25,1100,126.25,1,2.404794931,235.5023782
ABCD_1734,r,17,5,1,1481.25,1355,126.25,1,2.154489994,237.6571982
ABCD_1734,r,18,5,0,1202.125,1139,63.125,1,2.187561989,239.8451221
ABCD_1734,r,19,5,1,1260.125,1197,63.125,1,1.970479965,241.815793
ABCD_1734,r,20,5,0,1234.5625,1203,31.5625,1,1.720226049,243.5363271
ABCD_1734,r,21,5,1,1347,1378.5625,31.5625,0,3.089551926,246.6260681
ABCD_1734,r,22,6,0,1346.5625,1290,56.5625,1,2.455188036,249.0814562
ABCD_1734,r,23,6,1,1303.5625,1247,56.5625,1,2.404814005,251.4866202
ABCD_1734,r,24,6,0,1077,1105.28125,28.28125,0,2.33781004,253.8246272
ABCD_1734,r,25,7,0,1190.28125,1137,53.28125,0,1.870645046,255.6956
ABCD_1734,r,26,8,0,1168,1246.28125,78.28125,1,2.387976885,258.0837722
ABCD_1734,r,27,8,1,1458.28125,1380,78.28125,0,2.321527004,260.4054542
ABCD_1734,r,28,9,0,1102.28125,1019,83.28125,1,2.154417992,262.5600441
ABCD_1734,r,29,9,1,1192,1275.28125,83.28125,0,1.953860044,264.5140581
ABCD_1734,r,30,10,0,1152,1240.28125,88.28125,1,1.920746088,266.4349771
ABCD_1734,r,31,10,1,1440.28125,1352,88.28125,1,2.455040932,268.8901842
ABCD_1734,r,32,10,0,1182,1226.140625,44.140625,1,2.388278008,271.2786241
ABCD_1734,r,33,10,1,1226.140625,1182,44.140625,0,2.054332018,273.3332741
ABCD_1734,r,34,11,0,1383.140625,1334,49.140625,1,2.237740994,275.571377
ABCD_1734,r,35,11,1,1212.140625,1163,49.140625,1,2.438132048,278.009896
ABCD_1734,r,36,11,0,1115,1139.570313,24.5703125,0,2.271227837,280.2813561
ABCD_1734,r,37,12,0,1148,1177.570313,29.5703125,1,2.10412097,282.3856392
ABCD_1734,r,38,12,1,1408.570313,1379,29.5703125,1,2.137879133,284.523833
ABCD_1734,r,39,12,0,1110.785156,1096,14.78515625,1,3.239744902,287.7637751
ABCD_1734,r,40,12,1,1129.785156,1115,14.78515625,0,2.321563959,290.085644
ABCD_1734,r,41,13,0,1034.785156,1015,19.78515625,1,2.254396915,292.3402221
ABCD_1734,r,42,13,1,1204,1223.785156,19.78515625,0,2.22122097,294.5616052
ABCD_1734,r,43,14,0,1063.785156,1039,24.78515625,0,2.187906027,296.7498381
ABCD_1734,r,44,15,0,1383.785156,1354,29.78515625,1,2.120750904,298.8707941
ABCD_1734,r,45,15,1,1189,1218.785156,29.78515625,0,2.187687874,301.0586841
ABCD_1734,r,46,16,0,1049,1083.785156,34.78515625,1,2.472020149,303.5310192
ABCD_1734,r,47,16,1,1208.785156,1174,34.78515625,1,2.304523945,305.8358951
ABCD_1734,r,48,16,0,1311,1328.392578,17.39257813,0,2.438128948,308.27443
ABCD_1737,a,1,0,0,1000,1500,500,0,3.023529768,90.06304383
ABCD_1737,a,2,1,0,1000,460,540,NA,0,94.63938785
ABCD_1737,a,3,1,0,1000,460,540,1,2.705785036,97.34548187
ABCD_1737,a,4,1,1,1000,1540,540,1,3.073020935,100.4188609
ABCD_1737,a,5,1,0,1000,1270,270,0,2.287607908,102.7066729
ABCD_1737,a,6,2,0,1000,690,310,1,2.488623858,105.195663
ABCD_1737,a,7,2,1,1000,1310,310,1,3.189795971,108.3856668
ABCD_1737,a,8,2,0,1000,845,155,1,2.187759876,110.573653
ABCD_1737,a,9,2,1,1000,845,155,1,2.722351074,113.2963669
ABCD_1737,a,10,2,0,1000,1077.5,77.5,1,2.521587849,115.8181598
ABCD_1737,a,11,2,1,1000,1077.5,77.5,1,2.288076162,118.1064138
ABCD_1737,a,12,2,0,1000,1038.75,38.75,0,2.43835187,120.5449569
ABCD_1737,a,13,3,0,1000,921.25,78.75,1,2.471851826,123.016979
ABCD_1737,a,14,3,1,1000,1078.75,78.75,1,2.588623047,125.6057689
ABCD_1737,a,15,3,0,1000,1039.375,39.375,1,3.189991951,128.795923
ABCD_1737,a,16,3,1,1000,960.625,39.375,1,2.22131896,131.0176258
ABCD_1737,a,17,3,0,1000,1019.6875,19.6875,1,3.039342165,134.0571609
ABCD_1737,a,18,3,1,1000,1019.6875,19.6875,0,2.304785967,136.362119
ABCD_1737,a,19,4,0,1000,940.3125,59.6875,1,2.271353006,138.6336579
ABCD_1737,a,20,4,1,1000,940.3125,59.6875,1,2.304849148,140.9388208
ABCD_1737,a,21,4,0,1000,1029.84375,29.84375,1,2.304332018,143.2433128
ABCD_1737,a,22,4,1,1000,1029.84375,29.84375,1,2.338346004,145.5818188
ABCD_1737,a,23,4,0,1000,1014.921875,14.921875,1,2.58880496,148.170789
ABCD_1737,a,24,4,1,1000,985.078125,14.921875,1,2.104168892,150.2751319
ABCD_1737,a,25,4,0,1000,1007.460938,7.4609375,1,2.58881712,152.8642468
ABCD_1737,a,26,4,1,1000,1007.460938,7.4609375,1,2.655317068,155.519763
ABCD_1737,a,27,4,0,1000,1003.730469,3.73046875,0,2.672219992,158.1921518
ABCD_1737,a,28,5,0,1000,971.2695313,28.73046875,1,2.154534101,160.3470068
ABCD_1737,a,29,5,1,1000,971.2695313,28.73046875,1,2.338059902,162.6854329
ABCD_1737,a,30,5,0,1000,1014.365234,14.36523438,1,2.538287878,165.2239149
ABCD_1737,a,31,5,1,1000,985.6347656,14.36523438,1,2.137872934,167.3620999
ABCD_1737,a,32,5,0,1000,1007.182617,7.182617188,1,2.654984951,170.0172908
ABCD_1737,a,33,5,1,1000,992.8173828,7.182617188,1,2.271545887,172.2891219
ABCD_1737,a,34,5,0,1000,1003.591309,3.591308594,1,2.555181026,174.8445089
ABCD_1737,a,35,5,1,1000,1003.591309,3.591308594,1,2.304670095,177.1492929
ABCD_1737,a,36,5,0,1000,1001.795654,1.795654297,1,2.221345901,179.3708069
ABCD_1737,a,37,5,1,1000,998.2043457,1.795654297,1,2.3882792,181.759259
ABCD_1737,a,38,5,0,1000,1000.897827,0.897827148,0,2.772467136,184.532079
ABCD_1737,a,39,6,0,1000,974.1021729,25.89782715,1,2.204318047,186.7366059
ABCD_1737,a,40,6,1,1000,974.1021729,25.89782715,1,2.221423864,188.9582269
ABCD_1737,a,41,6,0,1000,987.0510864,12.94891357,1,2.221026897,191.1794398
ABCD_1737,a,42,6,1,1000,1012.948914,12.94891357,1,2.104304075,193.2839098
ABCD_1737,a,43,6,0,1000,1006.474457,6.474456787,0,2.20459795,195.4886808
ABCD_1737,a,44,7,0,1000,1031.474457,31.47445679,1,2.287904978,197.776788
ABCD_1737,a,45,7,1,1000,968.5255432,31.47445679,1,2.104485989,199.8816378
ABCD_1737,a,46,7,0,1000,984.2627716,15.73722839,1,2.070588112,201.9525719
ABCD_1737,a,47,7,1,1000,984.2627716,15.73722839,1,2.271267891,204.224206
ABCD_1737,a,48,7,0,1000,992.1313858,7.868614197,1,2.120766163,206.345166
ABCD_1737,a,49,7,1,1000,1007.868614,7.868614197,1,2.137825012,208.4831419
ABCD_1737,a,50,7,0,1000,1003.934307,3.934307098,1,2.388245106,210.8715329
ABCD_1737,a,51,7,1,1000,1003.934307,3.934307098,1,2.488436937,213.360137
ABCD_1737,a,52,7,0,1000,998.0328465,1.967153549,1,2.254717112,215.615027
ABCD_1737,a,53,7,1,1000,998.0328465,1.967153549,0,2.254657984,217.869844
ABCD_1737,a,54,8,0,1000,973.0328465,26.96715355,1,2.071354151,219.941777
ABCD_1737,a,55,8,1,1000,973.0328465,26.96715355,1,2.169382811,222.1123629
ABCD_1737,a,56,8,0,1000,1013.483577,13.48357677,1,2.271319866,224.3838458
ABCD_1737,a,57,8,1,1000,1013.483577,13.48357677,1,2.571973801,226.9559889
ABCD_1737,a,58,8,0,1000,993.2582116,6.741788387,1,2.17118597,229.1274629
ABCD_1737,a,59,8,1,1000,1006.741788,6.741788387,1,2.304568052,231.4322338
ABCD_1737,a,60,8,0,1000,1003.370894,3.370894194,1,2.288041115,233.7204468
ABCD_1737,a,61,8,1,1000,1003.370894,3.370894194,1,2.45507884,236.1757128
ABCD_1737,a,62,8,0,1000,1001.685447,1.685447097,0,2.171154022,238.3471508
ABCD_1737,a,63,9,0,1000,993.3145529,6.685447097,1,2.271337032,240.6187818
ABCD_1737,a,64,9,1,1000,1006.685447,6.685447097,0,2.221017122,242.8399589
ABCD_1737,a,65,10,0,1000,1011.685447,11.6854471,1,2.137811899,244.9780898
ABCD_1737,a,66,10,1,1000,1011.685447,11.6854471,1,2.271171808,247.2496269
ABCD_1737,a,67,10,0,1000,994.1572765,5.842723548,1,2.42143178,249.671253
ABCD_1737,a,68,10,1,1000,994.1572765,5.842723548,1,2.655493975,252.3269169
ABCD_1737,a,69,10,0,1000,997.0786382,2.921361774,1,2.221285105,254.5485199
ABCD_1737,a,70,10,1,1000,997.0786382,2.921361774,1,2.371379137,256.9200978
ABCD_1737,r,1,0,0,1118,1618,500,1,2.892271996,262.665602
ABCD_1737,r,2,0,1,1352,1852,500,1,2.271428108,264.9371419
ABCD_1737,r,3,0,0,1396,1146,250,1,2.037648916,266.974962
ABCD_1737,r,4,0,1,1538,1288,250,1,2.121010065,269.096221
ABCD_1737,r,5,0,0,1288,1163,125,1,2.438221931,271.5346389
ABCD_1737,r,6,0,1,1414,1289,125,1,2.321519852,273.8564689
ABCD_1737,r,7,0,0,1384,1446.5,62.5,1,2.42156601,276.2783818
ABCD_1737,r,8,0,1,1008,1070.5,62.5,1,2.254504919,278.5332749
ABCD_1737,r,9,0,0,1144,1175.25,31.25,1,2.087383032,280.621058
ABCD_1737,r,10,0,1,1124,1155.25,31.25,1,2.070647001,282.6919119
ABCD_1737,r,11,0,0,1081.625,1066,15.625,1,1.953867912,284.6459508
ABCD_1737,r,12,0,1,1370.625,1355,15.625,0,2.321655989,286.967953
ABCD_1737,r,13,1,0,1071,1126.625,55.625,1,2.371238947,289.3393979
ABCD_1737,r,14,1,1,1291.625,1236,55.625,0,2.689218998,292.028836
ABCD_1737,r,15,2,0,1024,1119.625,95.625,1,2.421383142,294.4504039
ABCD_1737,r,16,2,1,1317,1412.625,95.625,1,2.171005011,296.621604
ABCD_1737,r,17,2,0,1292.8125,1245,47.8125,1,1.987496138,298.6092439
ABCD_1737,r,18,2,1,1376,1423.8125,47.8125,1,2.538486004,301.1478739
ABCD_1737,r,19,2,0,1412.90625,1389,23.90625,1,2.271527052,303.4195869
ABCD_1737,r,20,2,1,1253.90625,1230,23.90625,1,2.288107157,305.7080078
ABCD_1737,r,21,2,0,1369.953125,1358,11.953125,1,2.488148928,308.1963558
ABCD_1737,r,22,2,1,1258,1269.953125,11.953125,0,2.238128901,310.4348519
ABCD_1737,r,23,3,0,1269,1320.953125,51.953125,1,2.121051073,312.556293
ABCD_1737,r,24,3,1,1365.953125,1314,51.953125,1,2.187252998,314.7437189
ABCD_1737,r,25,3,0,1019,1044.976563,25.9765625,1,2.104470015,316.8485279
ABCD_1737,r,26,3,1,1249.976563,1224,25.9765625,1,2.070657969,318.9193978
ABCD_1737,r,27,3,0,1315.988281,1303,12.98828125,0,2.204601049,321.1241159
ABCD_1737,r,28,4,0,1245.988281,1193,52.98828125,1,2.187840939,323.3121259
ABCD_1737,r,29,4,1,1017,1069.988281,52.98828125,1,2.087738991,325.4001849
ABCD_1737,r,30,4,0,1319,1345.494141,26.49414063,1,2.037244082,327.437789
ABCD_1737,r,31,4,1,1379.494141,1353,26.49414063,1,2.28786397,329.7258549
ABCD_1737,r,32,4,0,1114.24707,1101,13.24707031,0,2.755726099,332.4817638
ABCD_1737,r,33,5,0,1313,1351.24707,38.24707031,1,2.054147959,334.5362258
ABCD_1737,r,34,5,1,1397,1435.24707,38.24707031,1,2.020710945,336.5571299
ABCD_1737,r,35,5,0,1407.123535,1388,19.12353516,1,2.070901871,338.628202
ABCD_1737,r,36,5,1,1379,1398.123535,19.12353516,0,2.070888996,340.6992619
ABCD_1737,r,37,6,0,1197.123535,1153,44.12353516,0,2.421734095,343.1211729
ABCD_1737,r,38,7,0,1185,1254.123535,69.12353516,1,2.171143055,345.292495
ABCD_1737,r,39,7,1,1250,1319.123535,69.12353516,0,2.053764105,347.346843
ABCD_1737,r,40,8,0,1282,1376.123535,94.12353516,1,2.070991993,349.4180009
ABCD_1737,r,41,8,1,1265,1359.123535,94.12353516,1,2.354892015,351.7730639
ABCD_1737,r,42,8,0,1146,1193.061768,47.06176758,1,2.120981932,353.8942099
ABCD_1737,r,43,8,1,1308,1355.061768,47.06176758,1,2.070808172,355.9651818
ABCD_1737,r,44,8,0,1149,1172.530884,23.53088379,0,2.121159077,358.0865049
ABCD_1737,r,45,9,0,1129.530884,1101,28.53088379,1,2.05429101,360.141114
ABCD_1737,r,46,9,1,1117.530884,1089,28.53088379,1,2.103971958,362.24525
ABCD_1737,r,47,9,0,1235.265442,1221,14.26544189,1,2.455625057,364.701102
ABCD_1737,r,48,9,1,1135,1149.265442,14.26544189,0,2.638336897,367.3395488
ABCD_1737,r,49,10,0,1171.265442,1152,19.26544189,0,2.388242006,369.727963
ABCD_1737,r,50,11,0,1181,1205.265442,24.26544189,1,2.288153172,372.0162878
ABCD_1737,r,51,11,1,1096.265442,1072,24.26544189,1,2.17114687,374.187604
ABCD_1737,r,52,11,0,1411.132721,1399,12.13272095,1,2.104321003,376.2921128
ABCD_1737,r,53,11,1,1071,1083.132721,12.13272095,0,2.288008928,378.5802939
ABCD_1737,r,54,12,0,1215,1232.132721,17.13272095,0,2.655524969,381.2361388
ABCD_1737,r,55,13,0,1189,1211.132721,22.13272095,1,2.705429077,383.9417758
ABCD_1737,r,56,13,1,1282,1304.132721,22.13272095,0,2.288076878,386.230021
ABCD_1737,r,57,14,0,1264,1291.132721,27.13272095,1,2.221061945,388.4512448
ABCD_1737,r,58,14,1,1032,1059.132721,27.13272095,1,2.522091866,390.9735038
ABCD_1737,r,59,14,0,1211,1224.56636,13.56636047,1,4.008348942,394.982024
ABCD_1737,r,60,14,1,1021,1034.56636,13.56636047,0,2.455101967,397.437443
ABCD_1737,r,61,15,0,1096.56636,1078,18.56636047,1,2.354676962,399.792279
ABCD_1737,r,62,15,1,1161,1179.56636,18.56636047,1,2.638727903,402.4311779
ABCD_1737,r,63,15,0,1342,1351.28318,9.283180237,1,2.321424007,404.7527578
ABCD_1737,r,64,15,1,1059,1068.28318,9.283180237,0,2.321631908,407.0745509
ABCD_1737,r,65,16,0,1147.28318,1133,14.28318024,1,2.488453865,409.5631149
ABCD_1737,r,66,16,1,1145,1159.28318,14.28318024,0,2.054329872,411.617615
ABCD_1745,a,1,0,0,1000,500,500,1,2.191254139,132.8772779
ABCD_1745,a,2,0,1,1000,1500,500,1,2.170571089,135.0482039
ABCD_1745,a,3,0,0,1000,750,250,1,2.003846169,137.052242
ABCD_1745,a,4,0,1,1000,750,250,1,2.104273081,139.156672
ABCD_1745,a,5,0,0,1000,875,125,1,2.037426949,141.1942039
ABCD_1745,a,6,0,1,1000,875,125,1,2.071105957,143.265465
ABCD_1745,a,7,0,0,1000,1062.5,62.5,1,2.254724026,145.5205569
ABCD_1745,a,8,0,1,1000,1062.5,62.5,1,2.12072587,147.641469
ABCD_1745,a,9,0,0,1000,968.75,31.25,1,2.171128988,149.812753
ABCD_1745,a,10,0,1,1000,1031.25,31.25,0,2.171179056,151.984194
ABCD_1745,a,11,1,0,1000,928.75,71.25,0,2.070792913,154.0551889
ABCD_1745,a,12,2,0,1000,1111.25,111.25,0,2.004112959,156.0594649
ABCD_1745,a,13,3,0,1000,1151.25,151.25,1,1.937272072,157.996912
ABCD_1745,a,14,3,1,1000,1151.25,151.25,1,2.054265976,160.0514979
ABCD_1745,a,15,3,0,1000,924.375,75.625,1,2.705349922,162.7570438
ABCD_1745,a,16,3,1,1000,1075.625,75.625,1,2.254664898,165.011868
ABCD_1745,a,17,3,0,1000,962.1875,37.8125,1,2.187916994,167.2001369
ABCD_1745,a,18,3,1,1000,1037.8125,37.8125,0,3.390137911,170.590467
ABCD_1745,a,19,4,0,1000,1077.8125,77.8125,NA,0,175.1667399
ABCD_1745,a,20,4,0,1000,922.1875,77.8125,0,2.538768053,177.7058399
ABCD_1745,a,21,5,0,1000,1102.8125,102.8125,NA,0,182.2817039
ABCD_1745,a,22,5,0,1000,1102.8125,102.8125,NA,0,186.8583651
ABCD_1745,a,23,5,0,1000,897.1875,102.8125,1,2.137923956,188.9966381
ABCD_1745,a,24,5,1,1000,1102.8125,102.8125,NA,0,193.572716
ABCD_1745,a,25,5,1,1000,897.1875,102.8125,0,2.171202183,195.7441649
ABCD_1745,a,26,6,0,1000,872.1875,127.8125,1,2.571954012,198.316473
ABCD_1745,a,27,6,1,1000,1127.8125,127.8125,1,2.421452999,200.7383149
ABCD_1745,a,28,6,0,1000,936.09375,63.90625,NA,0,205.314311
ABCD_1745,a,29,6,0,1000,936.09375,63.90625,1,4.142159939,209.456835
ABCD_1745,a,30,6,1,1000,936.09375,63.90625,NA,0,214.032866
ABCD_1745,a,31,6,1,1000,1063.90625,63.90625,1,2.171284914,216.204313
ABCD_1745,a,32,6,0,1000,1031.953125,31.953125,NA,0,220.780652
ABCD_1745,a,33,6,0,1000,1031.953125,31.953125,NA,0,225.357059
ABCD_1745,a,34,6,0,1000,968.046875,31.953125,1,2.288234949,227.6456389
ABCD_1745,a,35,6,1,1000,968.046875,31.953125,0,4.208621979,231.8544528
ABCD_1745,a,36,7,0,1000,943.046875,56.953125,0,2.271407127,234.1262119
ABCD_1745,a,37,8,0,1000,1081.953125,81.953125,1,2.003794193,236.1302149
ABCD_1745,a,38,8,1,1000,918.046875,81.953125,NA,0,240.706861
ABCD_1745,a,39,8,1,1000,1081.953125,81.953125,NA,0,245.2829978
ABCD_1745,a,40,8,1,1000,1081.953125,81.953125,0,2.070909977,247.3541119
ABCD_1745,a,41,9,0,1000,913.046875,86.953125,0,2.254688025,249.6089571
ABCD_1745,a,42,10,0,1000,908.046875,91.953125,NA,0,254.1851299
ABCD_1745,a,43,10,0,1000,1091.953125,91.953125,0,3.791517019,257.9768119
ABCD_1745,a,44,11,0,1000,1096.953125,96.953125,0,4.559504032,262.5365028
ABCD_1745,a,45,12,0,1000,1101.953125,101.953125,NA,0,267.1129
ABCD_1745,a,46,12,0,1000,1101.953125,101.953125,1,3.089781046,270.2028708
ABCD_1745,a,47,12,1,1000,1101.953125,101.953125,0,2.805824995,273.008857
ABCD_1745,a,48,13,0,1000,893.046875,106.953125,0,3.073189974,276.0824111
ABCD_1745,a,49,14,0,1000,1111.953125,111.953125,0,3.089442015,279.172236
ABCD_1745,a,50,15,0,1000,883.046875,116.953125,0,2.438091993,281.610522
ABCD_1745,a,51,16,0,1000,1121.953125,121.953125,0,3.206797123,284.817621
ABCD_1745,r,1,0,0,1073,1573,500,1,2.688770056,295.7071869
ABCD_1745,r,2,0,1,1055,1555,500,1,1.903960943,297.6113079
ABCD_1745,r,3,0,0,1336,1586,250,0,1.837061882,299.4485369
ABCD_1745,r,4,1,0,1636,1346,290,1,1.937289,301.3859999
ABCD_1745,r,5,1,1,1498,1208,290,0,2.154448032,303.540606
ABCD_1745,r,6,2,0,1312,1642,330,0,1.937303782,305.47821
ABCD_1745,r,7,3,0,1629,1259,370,0,2.070631027,307.5490348
ABCD_1745,r,8,4,0,1279,1689,410,1,1.887296915,309.436497
ABCD_1745,r,9,4,1,1795,1385,410,1,2.020776987,311.4574699
ABCD_1745,r,10,4,0,1432,1227,205,1,2.070927143,313.5285668
ABCD_1745,r,11,4,1,1267,1062,205,1,2.020875931,315.549793
ABCD_1745,r,12,4,0,1327.5,1225,102.5,1,2.070703983,317.620877
ABCD_1745,r,13,4,1,1135,1237.5,102.5,1,2.438117981,320.0591869
ABCD_1745,r,14,4,0,1231,1282.25,51.25,1,1.937355995,321.9968491
ABCD_1745,r,15,4,1,1226,1277.25,51.25,1,2.087347031,324.0843449
ABCD_1745,r,16,4,0,1194.625,1169,25.625,1,2.121103048,326.2056038
ABCD_1745,r,17,4,1,1008,1033.625,25.625,0,2.288071871,328.493855
ABCD_1745,r,18,5,0,1226,1276.625,50.625,1,1.887255192,330.38148
ABCD_1745,r,19,5,1,1285.625,1235,50.625,0,2.271083832,332.65294
ABCD_1745,r,20,6,0,1455.625,1380,75.625,1,2.104213953,334.7575169
ABCD_1745,r,21,6,1,1381.625,1306,75.625,1,2.020548105,336.7784269
ABCD_1745,r,22,6,0,1338,1375.8125,37.8125,1,2.020529985,338.7991529
ABCD_1745,r,23,6,1,1399.8125,1362,37.8125,1,2.004175901,340.8037119
ABCD_1745,r,24,6,0,1099.90625,1081,18.90625,1,1.987096071,342.7910209
ABCD_1745,r,25,6,1,1128.90625,1110,18.90625,1,1.903876066,344.6952019
ABCD_1745,r,26,6,0,1240.453125,1231,9.453125,0,1.853604078,346.5489941
ABCD_1745,r,27,7,0,1387,1421.453125,34.453125,0,1.987469196,348.5368199
ABCD_1745,r,28,8,0,1042,1101.453125,59.453125,0,2.154071808,350.691098
ABCD_1745,r,29,9,0,1283.453125,1219,64.453125,0,1.870631933,352.561908
ABCD_1745,r,30,10,0,1340.453125,1271,69.453125,1,2.104331017,354.6665509
ABCD_1745,r,31,10,1,1281,1350.453125,69.453125,0,2.120820045,356.7877638
ABCD_1745,r,32,11,0,1156,1230.453125,74.453125,0,3.106189013,359.8943489
ABCD_1745,r,33,12,0,1199,1278.453125,79.453125,1,2.13747716,362.0320199
ABCD_1745,r,34,12,1,1077,1156.453125,79.453125,1,1.987496853,364.0198519
ABCD_1745,r,35,12,0,1370.726563,1331,39.7265625,0,2.170857906,366.190917
ABCD_1745,r,36,13,0,1412.726563,1368,44.7265625,1,3.039531946,369.2306271
ABCD_1745,r,37,13,1,1155,1199.726563,44.7265625,0,2.171128035,371.4019189
ABCD_1745,r,38,14,0,1076.726563,1027,49.7265625,NA,0,375.978323
ABCD_1745,r,39,14,0,1263,1312.726563,49.7265625,0,1.820428848,377.798907
ABCD_1745,r,40,15,0,1042,1096.726563,54.7265625,1,1.820436001,379.619514
ABCD_1745,r,41,15,1,1063.726563,1009,54.7265625,1,2.071131229,381.690984
ABCD_1745,r,42,15,0,1233.363281,1206,27.36328125,1,2.087243795,383.778435
ABCD_1745,r,43,15,1,1168,1195.363281,27.36328125,1,1.753979921,385.5328898
ABCD_1745,r,44,15,0,1257.681641,1244,13.68164063,1,1.869639874,387.402715
ABCD_1745,r,45,15,1,1028.681641,1015,13.68164063,0,2.121155977,389.5241981
ABCD_1745,r,46,16,0,1110,1128.681641,18.68164063,0,2.120821953,391.6454179
ABCD_1747,r,1,0,0,1600,1100,500,1,3.736810923,40.92324114
ABCD_1747,r,2,0,1,1092,1592,500,0,3.139835119,44.06325221
ABCD_1747,r,3,1,0,1571,1031,540,1,3.039766073,47.10338712
ABCD_1747,r,4,1,1,1864,1324,540,1,2.671905994,49.77547812
ABCD_1747,r,5,1,0,1414,1144,270,1,2.839163065,52.61474514
ABCD_1747,r,6,1,1,1386,1116,270,1,2.388401985,55.00331616
ABCD_1747,r,7,1,0,1307,1442,135,0,2.204443932,57.20786715
ABCD_1747,r,8,2,0,1353,1528,175,1,2.488590002,59.69661403
ABCD_1747,r,9,2,1,1021,1196,175,1,2.605650902,62.30246711
ABCD_1747,r,10,2,0,1152,1239.5,87.5,0,2.872224092,65.17485118
ABCD_1747,r,11,3,0,1250.5,1123,127.5,1,2.973133087,68.148314
ABCD_1747,r,12,3,1,1135,1262.5,127.5,1,2.838922977,70.98762822
ABCD_1747,r,13,3,0,1068.75,1005,63.75,1,2.688597918,73.67636108
ABCD_1747,r,14,3,1,1280.75,1217,63.75,1,3.924978971,77.60163808
ABCD_1747,r,15,3,0,1146.875,1115,31.875,1,3.306762934,80.90878105
ABCD_1747,r,16,3,1,1213,1244.875,31.875,1,2.722064972,83.63123918
ABCD_1747,r,17,3,0,1260.9375,1245,15.9375,0,2.388020992,86.01959205
ABCD_1747,r,18,4,0,1206,1261.9375,55.9375,1,3.072962999,89.09288621
ABCD_1747,r,19,4,1,1198,1253.9375,55.9375,1,2.354634047,91.4479022
ABCD_1747,r,20,4,0,1130.96875,1103,27.96875,1,2.321348906,93.76958919
ABCD_1747,r,21,4,1,1418.96875,1391,27.96875,0,2.33784008,96.10761499
ABCD_1747,r,22,5,0,1349,1401.96875,52.96875,1,2.822489023,98.93027306
ABCD_1747,r,23,5,1,1086,1138.96875,52.96875,1,2.488541842,101.4191751
ABCD_1747,r,24,5,0,1272,1298.484375,26.484375,1,2.304445982,103.7237692
ABCD_1747,r,25,5,1,1054.484375,1028,26.484375,1,2.505249023,106.2291811
ABCD_1747,r,26,5,0,1163,1176.242188,13.2421875,1,2.789094925,109.0183811
ABCD_1747,r,27,5,1,1165.242188,1152,13.2421875,0,2.371634007,111.390172
ABCD_1747,r,28,6,0,1357.242188,1319,38.2421875,1,2.221266985,113.6116071
ABCD_1747,r,29,6,1,1354,1392.242188,38.2421875,1,2.338238001,115.9502041
ABCD_1747,r,30,6,0,1383.121094,1364,19.12109375,0,2.137463093,118.0880671
ABCD_1747,r,31,7,0,1070.121094,1026,44.12109375,1,2.438174009,120.5266051
ABCD_1747,r,32,7,1,1184,1228.121094,44.12109375,1,2.221020937,122.7480011
ABCD_1747,r,33,7,0,1238,1260.060547,22.06054688,1,2.221032858,124.969414
ABCD_1747,r,34,7,1,1067.060547,1045,22.06054688,0,3.70746088,128.6770711
ABCD_1747,r,35,8,0,1102.060547,1055,47.06054688,1,2.722285032,131.3995252
ABCD_1747,r,36,8,1,1081,1128.060547,47.06054688,1,2.288053989,133.6877441
ABCD_1747,r,37,8,0,1065,1088.530273,23.53027344,0,2.622136831,136.3102422
ABCD_1747,r,38,9,0,1396,1424.530273,28.53027344,1,2.3211689,138.6316242
ABCD_1747,r,39,9,1,1335.530273,1307,28.53027344,0,2.087692022,140.719625
ABCD_1747,r,40,10,0,1397.530273,1364,33.53027344,1,2.220988035,142.9408112
ABCD_1747,r,41,10,1,1351.530273,1318,33.53027344,0,2.338622093,145.2798412
ABCD_1747,r,42,11,0,1348.530273,1310,38.53027344,1,2.103653908,147.383846
ABCD_1747,r,43,11,1,1406.530273,1368,38.53027344,1,3.056139946,150.440176
ABCD_1747,r,44,11,0,1126,1145.265137,19.26513672,1,2.354825974,152.7951672
ABCD_1747,r,45,11,1,1059,1078.265137,19.26513672,1,2.355010033,155.1506031
ABCD_1747,r,46,11,0,1059,1068.632568,9.632568359,1,2.137337208,157.2882502
ABCD_1747,r,47,11,1,1205.632568,1196,9.632568359,0,2.154215813,159.4426651
ABCD_1747,r,48,12,0,1152.632568,1138,14.63256836,0,2.321465015,161.7642941
ABCD_1747,r,49,13,0,1038.632568,1019,19.63256836,1,2.304883957,164.0695081
ABCD_1747,r,50,13,1,1293,1312.632568,19.63256836,1,2.037203789,166.1069021
ABCD_1747,r,51,13,0,1378,1387.816284,9.81628418,1,2.054289103,168.1613612
ABCD_1747,r,52,13,1,1076,1085.816284,9.81628418,0,2.154320002,170.315835
ABCD_1747,r,53,14,0,1081,1095.816284,14.81628418,0,2.622133017,172.9381402
ABCD_1747,r,54,15,0,1141.816284,1122,19.81628418,0,2.738880873,175.6773262
ABCD_1747,r,55,16,0,1181,1205.816284,24.81628418,1,3.106359959,178.7840941
ABCD_1747,r,56,16,1,1115,1139.816284,24.81628418,1,2.287896872,181.0723131
ABCD_1747,r,57,16,0,1151.408142,1139,12.40814209,0,2.254329205,183.326833
ABCD_1747,a,1,0,0,1000,1500,500,0,2.980833054,187.7365561
ABCD_1747,a,2,1,0,1000,1540,540,1,2.388053894,190.124809
ABCD_1747,a,3,1,1,1000,460,540,NA,0,194.7011292
ABCD_1747,a,4,1,1,1000,1540,540,1,2.872807026,197.5742531
ABCD_1747,a,5,1,0,1000,730,270,NA,0,202.1503072
ABCD_1747,a,6,1,0,1000,1270,270,1,2.488672018,204.6393061
ABCD_1747,a,7,1,1,1000,1270,270,1,2.287764072,206.9272592
ABCD_1747,a,8,1,0,1000,1135,135,0,2.438389063,209.3658021
ABCD_1747,a,9,2,0,1000,825,175,1,2.187937975,211.5540521
ABCD_1747,a,10,2,1,1000,825,175,1,2.220952988,213.7751942
ABCD_1747,a,11,2,0,1000,1087.5,87.5,0,2.38827014,216.163625
ABCD_1747,a,12,3,0,1000,1127.5,127.5,1,2.338613987,218.50264
ABCD_1747,a,13,3,1,1000,872.5,127.5,1,1.986726999,220.489531
ABCD_1747,a,14,3,0,1000,936.25,63.75,0,2.137736082,222.627424
ABCD_1747,a,15,4,0,1000,896.25,103.75,1,1.953979015,224.5815601
ABCD_1747,a,16,4,1,1000,896.25,103.75,1,2.054297924,226.636224
ABCD_1747,a,17,4,0,1000,1051.875,51.875,1,2.003718853,228.640146
ABCD_1747,a,18,4,1,1000,948.125,51.875,1,2.254752874,230.8950582
ABCD_1747,a,19,4,0,1000,1025.9375,25.9375,1,2.22122407,233.1164401
ABCD_1747,a,20,4,1,1000,1025.9375,25.9375,1,2.037528992,235.1541331
ABCD_1747,a,21,4,0,1000,1012.96875,12.96875,1,2.070937157,237.225229
ABCD_1747,a,22,4,1,1000,1012.96875,12.96875,1,1.954067945,239.1796601
ABCD_1747,a,23,4,0,1000,1006.484375,6.484375,0,2.237663984,241.4175172
ABCD_1747,a,24,5,0,1000,968.515625,31.484375,0,2.054259777,243.472116
ABCD_1747,a,25,6,0,1000,1056.484375,56.484375,1,2.154103041,245.6263611
ABCD_1747,a,26,6,1,1000,1056.484375,56.484375,0,2.03771019,247.6644142
ABCD_1747,a,27,7,0,1000,918.515625,81.484375,1,2.053960085,249.718708
ABCD_1747,a,28,7,1,1000,1081.484375,81.484375,1,1.903795004,251.6228771
ABCD_1747,a,29,7,0,1000,1040.742188,40.7421875,1,2.504899025,254.1279712
ABCD_1747,a,30,7,1,1000,1040.742188,40.7421875,1,1.920599937,256.0488651
ABCD_1747,a,31,7,0,1000,1020.371094,20.37109375,1,1.887096167,257.9363282
ABCD_1747,a,32,7,1,1000,979.6289063,20.37109375,1,2.104057074,260.040719
ABCD_1747,a,33,7,0,1000,1010.185547,10.18554688,0,2.10394907,262.1448672
ABCD_1747,a,34,8,0,1000,1035.185547,35.18554688,0,2.188055038,264.3330801
ABCD_1747,a,35,9,0,1000,959.8144531,40.18554688,0,2.338161945,266.6715982
ABCD_1747,a,36,10,0,1000,954.8144531,45.18554688,1,2.254276037,268.9260652
ABCD_1747,a,37,10,1,1000,954.8144531,45.18554688,1,2.204674959,271.131098
ABCD_1747,a,38,10,0,1000,1022.592773,22.59277344,1,2.154266119,273.2857151
ABCD_1747,a,39,10,1,1000,977.4072266,22.59277344,1,2.237637043,275.5236831
ABCD_1747,a,40,10,0,1000,1011.296387,11.29638672,0,2.054178953,277.5782201
ABCD_1747,a,41,11,0,1000,1016.296387,16.29638672,0,2.070622921,279.6490481
ABCD_1747,a,42,12,0,1000,1021.296387,21.29638672,1,2.020814896,281.6700311
ABCD_1747,a,43,12,1,1000,978.7036133,21.29638672,1,1.970695019,283.6408932
ABCD_1747,a,44,12,0,1000,1010.648193,10.64819336,1,1.954042912,285.5952601
ABCD_1747,a,45,12,1,1000,1010.648193,10.64819336,1,1.903670073,287.4991152
ABCD_1747,a,46,12,0,1000,1005.324097,5.32409668,1,1.970710993,289.4700031
ABCD_1747,a,47,12,1,1000,994.6759033,5.32409668,0,1.95442009,291.4249551
ABCD_1747,a,48,13,0,1000,989.6759033,10.32409668,1,1.86964798,293.2947922
ABCD_1747,a,49,13,1,1000,1010.324097,10.32409668,0,2.004128933,295.2992241
ABCD_1747,a,50,14,0,1000,984.6759033,15.32409668,0,1.553088903,296.8527071
ABCD_1747,a,51,15,0,1000,1020.324097,20.32409668,1,2.187479973,299.0404091
ABCD_1747,a,52,15,1,1000,1020.324097,20.32409668,1,1.937345982,300.9781201
ABCD_1747,a,53,15,0,1000,1010.162048,10.16204834,1,1.852752924,302.8320251
ABCD_1747,a,54,15,1,1000,989.8379517,10.16204834,0,1.803443909,304.6356602
ABCD_1747,a,55,16,0,1000,984.8379517,15.16204834,0,1.837168932,306.4731321
ABCD_1749,a,1,0,0,1000,1500,500,0,2.111329079,35.01096988
ABCD_1749,a,2,1,0,1000,460,540,1,2.638886929,37.64997602
ABCD_1749,a,3,1,1,1000,1540,540,1,2.271428823,39.921561
ABCD_1749,a,4,1,0,1000,730,270,1,2.238069057,42.15994883
ABCD_1749,a,5,1,1,1000,1270,270,1,2.404563904,44.56486201
ABCD_1749,a,6,1,0,1000,865,135,1,2.254562855,46.81966496
ABCD_1749,a,7,1,1,1000,865,135,1,2.120824099,48.94081593
ABCD_1749,a,8,1,0,1000,932.5,67.5,1,2.288370132,51.22950292
ABCD_1749,a,9,1,1,1000,1067.5,67.5,1,2.070428848,53.30008602
ABCD_1749,a,10,1,0,1000,966.25,33.75,1,2.17120409,55.47164702
ABCD_1749,a,11,1,1,1000,1033.75,33.75,1,2.371369123,57.84343505
ABCD_1749,a,12,1,0,1000,1016.875,16.875,1,1.953722954,59.7975359
ABCD_1749,a,13,1,1,1000,983.125,16.875,1,2.25419116,62.05192995
ABCD_1749,a,14,1,0,1000,1008.4375,8.4375,1,3.340391159,65.3924849
ABCD_1749,a,15,1,1,1000,1008.4375,8.4375,1,2.004296064,67.39713693
ABCD_1749,a,16,1,0,1000,995.78125,4.21875,0,1.970435858,69.36796284
ABCD_1749,a,17,2,0,1000,955.78125,44.21875,1,2.070554018,71.43871689
ABCD_1749,a,18,2,1,1000,1044.21875,44.21875,1,2.171288013,73.61036682
ABCD_1749,a,19,2,0,1000,1022.109375,22.109375,1,1.987065077,75.59761786
ABCD_1749,a,20,2,1,1000,1022.109375,22.109375,1,1.970766783,77.56856394
ABCD_1749,a,21,2,0,1000,1011.054688,11.0546875,1,2.137742996,79.70667887
ABCD_1749,a,22,2,1,1000,1011.054688,11.0546875,1,1.92027998,81.62715292
ABCD_1749,a,23,2,0,1000,994.4726563,5.52734375,1,2.171141148,83.79845786
ABCD_1749,a,24,2,1,1000,994.4726563,5.52734375,1,2.438380957,86.23712993
ABCD_1749,a,25,2,0,1000,1002.763672,2.763671875,1,2.070836067,88.30831504
ABCD_1749,a,26,2,1,1000,997.2363281,2.763671875,1,2.087350845,90.39587188
ABCD_1749,a,27,2,0,1000,998.6181641,1.381835938,0,1.970669031,92.3667109
ABCD_1749,a,28,3,0,1000,1041.381836,41.38183594,1,2.037714005,94.4047339
ABCD_1749,a,29,3,1,1000,958.6181641,41.38183594,1,2.020469904,96.42540598
ABCD_1749,a,30,3,0,1000,979.309082,20.69091797,1,2.087704182,98.51327896
ABCD_1749,a,31,3,1,1000,979.309082,20.69091797,1,2.037465096,100.5511169
ABCD_1749,a,32,3,0,1000,989.654541,10.34545898,1,1.920423031,102.4719129
ABCD_1749,a,33,3,1,1000,989.654541,10.34545898,1,2.103972912,104.576088
ABCD_1749,a,34,3,0,1000,994.8272705,5.172729492,1,1.987430811,106.5636899
ABCD_1749,a,35,3,1,1000,1005.172729,5.172729492,0,2.037621021,108.6016569
ABCD_1749,a,36,4,0,1000,954.8272705,45.17272949,1,2.271061897,110.872932
ABCD_1749,a,37,4,1,1000,954.8272705,45.17272949,1,1.970743895,112.843992
ABCD_1749,a,38,4,0,1000,1022.586365,22.58636475,1,2.154185057,114.9985108
ABCD_1749,a,39,4,1,1000,977.4136353,22.58636475,1,1.937110901,116.935966
ABCD_1749,a,40,4,0,1000,1011.293182,11.29318237,1,2.221042871,119.1571739
ABCD_1749,a,41,4,1,1000,988.7068176,11.29318237,1,2.154509783,121.3118649
ABCD_1749,a,42,4,0,1000,1005.646591,5.646591187,1,2.004116058,123.3163049
ABCD_1749,a,43,4,1,1000,994.3534088,5.646591187,1,2.170895815,125.4873939
ABCD_1749,a,44,4,0,1000,1002.823296,2.823295593,1,2.187881947,127.675595
ABCD_1749,a,45,4,1,1000,1002.823296,2.823295593,1,1.970532179,129.646482
ABCD_1749,a,46,4,0,1000,1001.411648,1.411647797,1,1.937106133,131.583941
ABCD_1749,a,47,4,1,1000,998.5883522,1.411647797,0,1.853536129,133.437676
ABCD_1749,a,48,5,0,1000,1026.411648,26.4116478,1,2.03747797,135.4752898
ABCD_1749,a,49,5,1,1000,973.5883522,26.4116478,1,1.920610905,137.396054
ABCD_1749,a,50,5,0,1000,1013.205824,13.2058239,1,2.354902983,139.7511311
ABCD_1749,a,51,5,1,1000,986.7941761,13.2058239,1,2.020705938,141.772001
ABCD_1749,a,52,5,0,1000,1006.602912,6.602911949,1,2.004383087,143.776746
ABCD_1749,a,53,5,1,1000,993.3970881,6.602911949,1,2.170734882,145.9476969
ABCD_1749,a,54,5,0,1000,996.698544,3.301455975,0,2.053866148,148.0020769
ABCD_1749,a,55,6,0,1000,1028.301456,28.30145597,1,2.070894003,150.0731509
ABCD_1749,a,56,6,1,1000,971.698544,28.30145597,1,2.004105806,152.0774229
ABCD_1749,a,57,6,0,1000,985.849272,14.15072799,1,2.070925951,154.148535
ABCD_1749,a,58,6,1,1000,985.849272,14.15072799,1,2.304779053,156.4536839
ABCD_1749,a,59,6,0,1000,992.924636,7.075363994,1,2.104001045,158.5578859
ABCD_1749,a,60,6,1,1000,992.924636,7.075363994,0,2.171325207,160.7295299
ABCD_1749,a,61,7,0,1000,967.924636,32.07536399,1,2.237802029,162.9676089
ABCD_1749,a,62,7,1,1000,1032.075364,32.07536399,1,2.170914888,165.13889
ABCD_1749,a,63,7,0,1000,983.962318,16.037682,1,2.053900003,167.1930048
ABCD_1749,a,64,7,1,1000,983.962318,16.037682,1,2.421674013,169.6149979
ABCD_1749,a,65,7,0,1000,1008.018841,8.018840998,1,2.154220104,171.7694509
ABCD_1749,a,66,7,1,1000,991.981159,8.018840998,1,2.20448184,173.974103
ABCD_1749,a,67,7,0,1000,995.9905795,4.009420499,1,2.288175106,176.2626228
ABCD_1749,a,68,7,1,1000,1004.009421,4.009420499,1,2.388107061,178.6510799
ABCD_1749,a,69,7,0,1000,1002.00471,2.00471025,1,2.187388897,180.838676
ABCD_1749,a,70,7,1,1000,1002.00471,2.00471025,0,2.171522141,183.0105519
ABCD_1749,r,1,0,0,1685,1185,500,1,2.206110954,186.3508019
ABCD_1749,r,2,0,1,1777,1277,500,1,2.220966101,188.5719628
ABCD_1749,r,3,0,0,1373,1123,250,1,2.271430016,190.843724
ABCD_1749,r,4,0,1,1188,1438,250,1,2.054354906,192.8984261
ABCD_1749,r,5,0,0,1394,1519,125,1,2.203701973,195.1023219
ABCD_1749,r,6,0,1,1179,1054,125,1,1.904163122,197.006907
ABCD_1749,r,7,0,0,1180.5,1118,62.5,1,2.154090881,199.1613441
ABCD_1749,r,8,0,1,1110,1172.5,62.5,1,2.020642042,201.1823769
ABCD_1749,r,9,0,0,1105.25,1074,31.25,1,2.037456036,203.2201049
ABCD_1749,r,10,0,1,1300,1331.25,31.25,1,1.987188101,205.2074609
ABCD_1749,r,11,0,0,1317,1332.625,15.625,1,2.087529898,207.2951529
ABCD_1749,r,12,0,1,1268.625,1253,15.625,1,2.054283857,209.3497999
ABCD_1749,r,13,0,0,1297.8125,1290,7.8125,1,1.987183094,211.337374
ABCD_1749,r,14,0,1,1156.8125,1149,7.8125,1,2.287572145,213.62515
ABCD_1749,r,15,0,0,1103.90625,1100,3.90625,1,2.004165173,215.629482
ABCD_1749,r,16,0,1,1058.90625,1055,3.90625,1,2.104553938,217.73437
ABCD_1749,r,17,0,0,1226.953125,1225,1.953125,1,1.970507145,219.705235
ABCD_1749,r,18,0,1,1242,1243.953125,1.953125,0,2.120730877,221.8261678
ABCD_1749,r,19,1,0,1180.953125,1139,41.953125,1,1.987434864,223.813787
ABCD_1749,r,20,1,1,1326.953125,1285,41.953125,1,2.020779133,225.834738
ABCD_1749,r,21,1,0,1102,1122.976563,20.9765625,0,2.288129091,228.12321
ABCD_1749,r,22,2,0,1080.976563,1020,60.9765625,1,1.970443964,230.0940518
ABCD_1749,r,23,2,1,1075.976563,1015,60.9765625,0,2.438163996,232.5326169
ABCD_1749,r,24,3,0,1253,1353.976563,100.9765625,0,2.187535048,234.72035
ABCD_1749,r,25,4,0,1157.976563,1017,140.9765625,1,2.288130999,237.0087988
ABCD_1749,r,26,4,1,1463.976563,1323,140.9765625,1,2.187615871,239.1967869
ABCD_1749,r,27,4,0,1280.488281,1210,70.48828125,1,2.120822906,241.3180139
ABCD_1749,r,28,4,1,1354,1424.488281,70.48828125,1,2.154017925,243.472234
ABCD_1749,r,29,4,0,1348,1383.244141,35.24414063,0,2.187911987,245.6603169
ABCD_1749,r,30,5,0,1099.244141,1039,60.24414063,1,2.187988997,247.848645
ABCD_1749,r,31,5,1,1140.244141,1080,60.24414063,1,1.97034812,249.8191988
ABCD_1749,r,32,5,0,1238,1268.12207,30.12207031,1,2.087502956,251.9068248
ABCD_1749,r,33,5,1,1246,1276.12207,30.12207031,0,2.121212006,254.028204
ABCD_1749,r,34,6,0,1400.12207,1345,55.12207031,1,2.388339043,256.4168789
ABCD_1749,r,35,6,1,1120,1175.12207,55.12207031,1,2.805505991,259.2225769
ABCD_1749,r,36,6,0,1222.561035,1195,27.56103516,1,2.204651833,261.4275661
ABCD_1749,r,37,6,1,1222.561035,1195,27.56103516,0,2.020477057,263.4482419
ABCD_1749,r,38,7,0,1190.561035,1138,52.56103516,1,2.070443153,265.5192389
ABCD_1749,r,39,7,1,1328.561035,1276,52.56103516,1,2.037647963,267.5570469
ABCD_1749,r,40,7,0,1209.280518,1183,26.28051758,1,1.954004049,269.5112209
ABCD_1749,r,41,7,1,1127.280518,1101,26.28051758,1,1.920568943,271.4319608
ABCD_1749,r,42,7,0,1213.140259,1200,13.14025879,0,2.204519033,273.6366549
ABCD_1749,r,43,8,0,1415.140259,1377,38.14025879,1,2.020804882,275.6576209
ABCD_1749,r,44,8,1,1186.140259,1148,38.14025879,1,1.970875978,277.6288331
ABCD_1749,r,45,8,0,1292,1311.070129,19.07012939,1,2.070544004,279.699578
ABCD_1749,r,46,8,1,1073.070129,1054,19.07012939,1,2.137799978,281.8376949
ABCD_1749,r,47,8,0,1253,1262.535065,9.535064697,0,2.271102905,284.1091568
ABCD_1749,r,48,9,0,1016.535065,1002,14.5350647,1,2.421453953,286.530803
ABCD_1749,r,49,9,1,1142,1156.535065,14.5350647,0,2.1544559,288.68542
ABCD_1749,r,50,10,0,1374.535065,1355,19.5350647,0,2.304638863,290.990221
ABCD_1749,r,51,11,0,1280.535065,1256,24.5350647,1,2.271474838,293.2618768
ABCD_1749,r,52,11,1,1261.535065,1237,24.5350647,1,2.15439105,295.4164419
ABCD_1749,r,53,11,0,1234,1246.267532,12.26753235,0,2.121072054,297.537828
ABCD_1749,r,54,12,0,1195.267532,1178,17.26753235,1,2.204403877,299.7426019
ABCD_1749,r,55,12,1,1160.267532,1143,17.26753235,1,2.187578917,301.9304938
ABCD_1749,r,56,12,0,1237.633766,1229,8.633766174,1,1.953871965,303.8846829
ABCD_1749,r,57,12,1,1096.633766,1088,8.633766174,1,1.97052002,305.855406
ABCD_1749,r,58,12,0,1035,1039.316883,4.316883087,0,2.037480116,307.8930409
ABCD_1749,r,59,13,0,1069,1078.316883,9.316883087,0,2.070888042,309.964103
ABCD_1749,r,60,14,0,1145,1159.316883,14.31688309,1,1.97080493,311.935236
ABCD_1749,r,61,14,1,1075,1089.316883,14.31688309,1,1.920444965,313.8560319
ABCD_1749,r,62,14,0,1155.158442,1148,7.158441544,0,1.98694706,315.843327
ABCD_1749,r,63,15,0,1008,1020.158442,12.15844154,0,1.786956072,317.6304579
ABCD_1749,r,64,16,0,1066.158442,1049,17.15844154,0,1.937325001,319.567971
ABCD_1751,a,1,0,0,1000,1500,500,0,2.458366871,55.37481999
ABCD_1751,a,2,1,0,1000,1540,540,1,2.337838888,57.71287608
ABCD_1751,a,3,1,1,1000,460,540,1,2.388140917,60.10117793
ABCD_1751,a,4,1,0,1000,1270,270,1,2.505282879,62.60662293
ABCD_1751,a,5,1,1,1000,730,270,1,2.321527958,64.92849708
ABCD_1751,a,6,1,0,1000,865,135,NA,0,69.50449991
ABCD_1751,a,7,1,0,1000,1135,135,1,3.574213028,73.07908201
ABCD_1751,a,8,1,1,1000,1135,135,1,2.321321011,75.40060592
ABCD_1751,a,9,1,0,1000,1067.5,67.5,1,2.622132063,78.0230751
ABCD_1751,a,10,1,1,1000,1067.5,67.5,1,2.237786055,80.26114011
ABCD_1751,a,11,1,0,1000,1033.75,33.75,1,2.204355001,82.46579599
ABCD_1751,a,12,1,1,1000,966.25,33.75,1,2.154145002,84.62014008
ABCD_1751,a,13,1,0,1000,1016.875,16.875,1,2.288192034,86.90864396
ABCD_1751,a,14,1,1,1000,1016.875,16.875,0,2.371366024,89.28033209
ABCD_1751,a,15,2,0,1000,943.125,56.875,1,2.321436882,91.60210609
ABCD_1751,a,16,2,1,1000,1056.875,56.875,1,2.204267979,93.80673003
ABCD_1751,a,17,2,0,1000,971.5625,28.4375,1,2.220992088,96.02793694
ABCD_1751,a,18,2,1,1000,971.5625,28.4375,1,2.321450949,98.34955406
ABCD_1751,a,19,2,0,1000,985.78125,14.21875,1,2.505452156,100.8552921
ABCD_1751,a,20,2,1,1000,1014.21875,14.21875,1,2.304393768,103.160043
ABCD_1751,a,21,2,0,1000,1007.109375,7.109375,1,2.471547842,105.6320319
ABCD_1751,a,22,2,1,1000,1007.109375,7.109375,1,2.204243898,107.836612
ABCD_1751,a,23,2,0,1000,996.4453125,3.5546875,0,2.237746,110.0746901
ABCD_1751,a,24,3,0,1000,1043.554688,43.5546875,1,2.287852049,112.362747
ABCD_1751,a,25,3,1,1000,956.4453125,43.5546875,1,2.03755784,114.4006181
ABCD_1751,a,26,3,0,1000,1021.777344,21.77734375,1,2.137462139,116.5382659
ABCD_1751,a,27,3,1,1000,978.2226563,21.77734375,1,2.321574926,118.8602049
ABCD_1751,a,28,3,0,1000,989.1113281,10.88867188,1,2.35452199,121.2149129
ABCD_1751,a,29,3,1,1000,989.1113281,10.88867188,1,2.254682779,123.4698961
ABCD_1751,a,30,3,0,1000,994.5556641,5.444335938,1,2.07078886,125.5410621
ABCD_1751,a,31,3,1,1000,994.5556641,5.444335938,0,2.221010923,127.762419
ABCD_1751,a,32,4,0,1000,954.5556641,45.44433594,1,1.987353086,129.750119
ABCD_1751,a,33,4,1,1000,1045.444336,45.44433594,1,2.204194069,131.9545131
ABCD_1751,a,34,4,0,1000,977.277832,22.72216797,1,2.455137014,134.4099629
ABCD_1751,a,35,4,1,1000,977.277832,22.72216797,1,2.371191025,136.7812951
ABCD_1751,a,36,4,0,1000,1011.361084,11.36108398,1,2.221443892,139.0029061
ABCD_1751,a,37,4,1,1000,1011.361084,11.36108398,1,2.221261024,141.2244821
ABCD_1751,a,38,4,0,1000,1005.680542,5.680541992,1,2.104182005,143.328861
ABCD_1751,a,39,4,1,1000,994.319458,5.680541992,0,2.187638044,145.516813
ABCD_1751,a,40,5,0,1000,969.319458,30.68054199,1,2.037414074,147.55442
ABCD_1751,a,41,5,1,1000,969.319458,30.68054199,1,2.288188219,149.842916
ABCD_1751,a,42,5,0,1000,984.659729,15.340271,1,2.170932055,152.014246
ABCD_1751,a,43,5,1,1000,984.659729,15.340271,1,2.104097843,154.1187119
ABCD_1751,a,44,5,0,1000,1007.670136,7.670135498,0,1.970427036,156.0893421
ABCD_1751,a,45,6,0,1000,967.3298645,32.6701355,1,2.237997055,158.3276451
ABCD_1751,a,46,6,1,1000,1032.670136,32.6701355,1,2.254467011,160.582454
ABCD_1751,a,47,6,0,1000,1016.335068,16.33506775,1,2.271125793,162.853776
ABCD_1751,a,48,6,1,1000,1016.335068,16.33506775,1,2.120979071,164.974915
ABCD_1751,a,49,6,0,1000,1008.167534,8.167533875,1,2.154469013,167.129678
ABCD_1751,a,50,6,1,1000,991.8324661,8.167533875,1,2.30461216,169.4346311
ABCD_1751,a,51,6,0,1000,995.9162331,4.083766937,1,2.154235125,171.589215
ABCD_1751,a,52,6,1,1000,1004.083767,4.083766937,0,2.287819862,173.877239
ABCD_1751,a,53,7,0,1000,1029.083767,29.08376694,1,1.970850945,175.8484001
ABCD_1751,a,54,7,1,1000,1029.083767,29.08376694,1,2.10402298,177.952636
ABCD_1751,a,55,7,0,1000,985.4581165,14.54188347,1,2.454683065,180.407851
ABCD_1751,a,56,7,1,1000,1014.541883,14.54188347,1,2.405038834,182.81321
ABCD_1751,a,57,7,0,1000,992.7290583,7.270941734,0,2.254397154,185.0677979
ABCD_1751,a,58,8,0,1000,1032.270942,32.27094173,1,2.288114071,187.356251
ABCD_1751,a,59,8,1,1000,1032.270942,32.27094173,1,2.137419224,189.493855
ABCD_1751,a,60,8,0,1000,983.8645291,16.13547087,1,2.037536144,191.5315559
ABCD_1751,a,61,8,1,1000,1016.135471,16.13547087,1,2.321551085,193.853461
ABCD_1751,a,62,8,0,1000,1008.067735,8.067735434,1,2.170881987,196.02474
ABCD_1751,a,63,8,1,1000,991.9322646,8.067735434,1,2.254353046,198.2794111
ABCD_1751,a,64,8,0,1000,1004.033868,4.033867717,0,2.170896053,200.4505
ABCD_1751,a,65,9,0,1000,1009.033868,9.033867717,1,2.22128582,202.6719069
ABCD_1751,a,66,9,1,1000,1009.033868,9.033867717,1,2.020883083,204.692941
ABCD_1751,a,67,9,0,1000,995.4830661,4.516933858,0,1.953966141,206.6472509
ABCD_1751,a,68,10,0,1000,1009.516934,9.516933858,0,2.287914991,208.9353549
ABCD_1751,a,69,11,0,1000,985.4830661,14.51693386,0,2.571988821,211.5075049
ABCD_1751,a,70,12,0,1000,980.4830661,19.51693386,1,2.087677956,213.5955319
ABCD_1751,r,1,0,0,1525,1025,500,1,3.218847036,218.8899269
ABCD_1751,r,2,0,1,1649,1149,500,1,2.304522991,221.194607
ABCD_1751,r,3,0,0,1139,1389,250,1,2.221504927,223.41642
ABCD_1751,r,4,0,1,1116,1366,250,1,2.054297924,225.4709649
ABCD_1751,r,5,0,0,1338,1463,125,1,2.220941067,227.6920669
ABCD_1751,r,6,0,1,1302,1427,125,1,2.154261827,229.8464341
ABCD_1751,r,7,0,0,1084.5,1022,62.5,1,2.304991961,232.1517899
ABCD_1751,r,8,0,1,1283,1345.5,62.5,1,2.221041918,234.373184
ABCD_1751,r,9,0,0,1188.25,1157,31.25,1,2.471566916,236.845041
ABCD_1751,r,10,0,1,1165,1196.25,31.25,0,2.287896872,239.1331241
ABCD_1751,r,11,1,0,1087.25,1016,71.25,0,2.121014118,241.254307
ABCD_1751,r,12,2,0,1181.25,1070,111.25,1,2.338013172,243.5924809
ABCD_1751,r,13,2,1,1416.25,1305,111.25,0,2.338263035,245.9309051
ABCD_1751,r,14,3,0,1000,1151.25,151.25,1,2.572001934,248.5030251
ABCD_1751,r,15,3,1,1055,1206.25,151.25,0,2.622208834,251.125598
ABCD_1751,r,16,4,0,1391.25,1200,191.25,1,2.488233089,253.614172
ABCD_1751,r,17,4,1,1003,1194.25,191.25,1,2.471553087,256.085917
ABCD_1751,r,18,4,0,1023,1118.625,95.625,1,2.288043022,258.374125
ABCD_1751,r,19,4,1,1027,1122.625,95.625,1,2.204570055,260.57885
ABCD_1751,r,20,4,0,1062.8125,1015,47.8125,1,2.104281187,262.6832941
ABCD_1751,r,21,4,1,1369.8125,1322,47.8125,1,2.622101069,265.305548
ABCD_1751,r,22,4,0,1068,1091.90625,23.90625,1,2.471877813,267.777772
ABCD_1751,r,23,4,1,1071,1094.90625,23.90625,1,2.254356861,270.03233
ABCD_1751,r,24,4,0,1251,1262.953125,11.953125,0,2.371582985,272.4042709
ABCD_1751,r,25,5,0,1263.953125,1227,36.953125,0,2.07077384,274.4754241
ABCD_1751,r,26,6,0,1313.953125,1252,61.953125,0,2.120954037,276.5966101
ABCD_1751,r,27,7,0,1244,1330.953125,86.953125,1,2.07063508,278.6674111
ABCD_1751,r,28,7,1,1186.953125,1100,86.953125,1,2.070852041,280.738414
ABCD_1751,r,29,7,0,1097.476563,1054,43.4765625,1,2.25473094,282.9933031
ABCD_1751,r,30,7,1,1027,1070.476563,43.4765625,1,2.221302032,285.2149191
ABCD_1751,r,31,7,0,1016,1037.738281,21.73828125,1,2.371315002,287.5864301
ABCD_1751,r,32,7,1,1384.738281,1363,21.73828125,0,2.304820061,289.8916221
ABCD_1751,r,33,8,0,1129,1175.738281,46.73828125,0,2.304448843,292.19627
ABCD_1751,r,34,9,0,1223,1274.738281,51.73828125,1,1.970711946,294.1671431
ABCD_1751,r,35,9,1,1311,1362.738281,51.73828125,1,2.087600946,296.2549081
ABCD_1751,r,36,9,0,1195,1220.869141,25.86914063,1,2.104347944,298.359411
ABCD_1751,r,37,9,1,1038.869141,1013,25.86914063,1,1.920684099,300.280412
ABCD_1751,r,38,9,0,1134.93457,1122,12.93457031,0,2.304461956,302.5850539
ABCD_1751,r,39,10,0,1061.93457,1044,17.93457031,1,2.003913164,304.5896399
ABCD_1751,r,40,10,1,1087,1104.93457,17.93457031,1,2.154006958,306.7438431
ABCD_1751,r,41,10,0,1237,1245.967285,8.967285156,1,2.18778491,308.9317861
ABCD_1751,r,42,10,1,1091.967285,1083,8.967285156,0,2.522059917,311.45415
ABCD_1751,r,43,11,0,1363.967285,1350,13.96728516,0,2.371456862,313.825973
ABCD_1751,r,44,12,0,1362,1380.967285,18.96728516,1,2.170783043,315.9970989
ABCD_1751,r,45,12,1,1108.967285,1090,18.96728516,1,2.070794106,318.068079
ABCD_1751,r,46,12,0,1193,1202.483643,9.483642578,1,2.30469203,320.3730781
ABCD_1751,r,47,12,1,1077.483643,1068,9.483642578,1,2.30457902,322.677851
ABCD_1751,r,48,12,0,1217,1221.741821,4.741821289,1,2.204617023,324.882638
ABCD_1751,r,49,12,1,1249.741821,1245,4.741821289,0,2.404964924,327.2877719
ABCD_1751,r,50,13,0,1163.741821,1154,9.741821289,1,2.070945978,329.3589239
ABCD_1751,r,51,13,1,1259,1268.741821,9.741821289,1,2.12093401,331.4800119
ABCD_1751,r,52,13,0,1047.870911,1043,4.870910645,1,2.104448795,333.5848229
ABCD_1751,r,53,13,1,1336,1340.870911,4.870910645,1,2.388006926,335.9731779
ABCD_1751,r,54,13,0,1030,1032.435455,2.435455322,0,2.304555178,338.278127
ABCD_1751,r,55,14,0,1340.435455,1333,7.435455322,0,2.037269115,340.315783
ABCD_1751,r,56,15,0,1128.435455,1116,12.43545532,0,2.070743084,342.386883
ABCD_1751,r,57,16,0,1274.435455,1257,17.43545532,0,2.204252005,344.591325
ABCD_1752,r,1,0,0,1342,1842,500,0,2.447540998,55.92118502
ABCD_1752,r,2,1,0,1828,1288,540,1,2.888966084,58.81035209
ABCD_1752,r,3,1,1,1390,1930,540,1,2.672348976,61.48300695
ABCD_1752,r,4,1,0,1053,1323,270,1,2.354654074,63.83786702
ABCD_1752,r,5,1,1,1119,1389,270,1,2.421622992,66.25965905
ABCD_1752,r,6,1,0,1441,1306,135,1,2.538495064,68.79831505
ABCD_1752,r,7,1,1,1147,1012,135,1,2.304941177,71.10361505
ABCD_1752,r,8,1,0,1383,1450.5,67.5,1,2.605106831,73.70891595
ABCD_1752,r,9,1,1,1315.5,1248,67.5,1,2.404798031,76.11387014
ABCD_1752,r,10,1,0,1373.75,1340,33.75,1,2.705804825,78.81998801
ABCD_1752,r,11,1,1,1108.75,1075,33.75,1,2.237715006,81.05789804
ABCD_1752,r,12,1,0,1030,1046.875,16.875,1,2.489028215,83.54732108
ABCD_1752,r,13,1,1,1360.875,1344,16.875,0,3.50646615,87.05394602
ABCD_1752,r,14,2,0,1154,1210.875,56.875,0,2.705676079,89.75979209
ABCD_1752,r,15,3,0,1357,1453.875,96.875,1,2.254536867,92.01449394
ABCD_1752,r,16,3,1,1150,1246.875,96.875,1,2.187927008,94.20258212
ABCD_1752,r,17,3,0,1262.4375,1214,48.4375,1,2.338240147,96.54112697
ABCD_1752,r,18,3,1,1125.4375,1077,48.4375,1,2.371370077,98.91268802
ABCD_1752,r,19,3,0,1195.21875,1171,24.21875,1,3.006285906,101.9191511
ABCD_1752,r,20,3,1,1382.21875,1358,24.21875,1,2.45498991,104.374306
ABCD_1752,r,21,3,0,1195.109375,1183,12.109375,1,2.438300848,106.8127711
ABCD_1752,r,22,3,1,1259,1271.109375,12.109375,0,2.622074127,109.4352231
ABCD_1752,r,23,4,0,1065,1117.109375,52.109375,1,2.638612986,112.0740421
ABCD_1752,r,24,4,1,1072,1124.109375,52.109375,1,2.638888121,114.713258
ABCD_1752,r,25,4,0,1240,1266.054688,26.0546875,1,2.638597965,117.352046
ABCD_1752,r,26,4,1,1056,1082.054688,26.0546875,1,2.538393021,119.8905962
ABCD_1752,r,27,4,0,1136,1149.027344,13.02734375,1,2.32151103,122.2124701
ABCD_1752,r,28,4,1,1372,1385.027344,13.02734375,1,2.255049229,124.4678171
ABCD_1752,r,29,4,0,1086.513672,1080,6.513671875,1,2.988868952,127.4568491
ABCD_1752,r,30,4,1,1261,1267.513672,6.513671875,0,2.622218847,130.0793791
ABCD_1752,r,31,5,0,1038.513672,1007,31.51367188,1,2.337905884,132.41768
ABCD_1752,r,32,5,1,1118,1149.513672,31.51367188,1,2.454842091,134.8728721
ABCD_1752,r,33,5,0,1381.756836,1366,15.75683594,1,2.47153306,137.3446021
ABCD_1752,r,34,5,1,1070,1085.756836,15.75683594,0,2.338246107,139.683187
ABCD_1752,r,35,6,0,1322.756836,1282,40.75683594,1,2.471591949,142.1551321
ABCD_1752,r,36,6,1,1056,1096.756836,40.75683594,0,3.122888088,145.2782171
ABCD_1752,r,37,7,0,1194,1259.756836,65.75683594,1,2.187901974,147.46644
ABCD_1752,r,38,7,1,1411.756836,1346,65.75683594,1,2.237668991,149.7043021
ABCD_1752,r,39,7,0,1038,1070.878418,32.87841797,0,2.922806978,152.6274381
ABCD_1752,r,40,8,0,1086,1143.878418,57.87841797,1,2.354681015,154.982512
ABCD_1752,r,41,8,1,1373,1430.878418,57.87841797,1,2.104060173,157.0869679
ABCD_1752,r,42,8,0,1388,1416.939209,28.93920898,1,2.387989998,159.4751661
ABCD_1752,r,43,8,1,1260.939209,1232,28.93920898,1,2.388198137,161.8635302
ABCD_1752,r,44,8,0,1254.469604,1240,14.46960449,1,2.355237007,164.219007
ABCD_1752,r,45,8,1,1316.469604,1302,14.46960449,0,2.722009897,166.9413741
ABCD_1752,r,46,9,0,1164,1183.469604,19.46960449,1,2.571634054,169.5132051
ABCD_1752,r,47,9,1,1262.469604,1243,19.46960449,1,2.455144167,171.968667
ABCD_1752,r,48,9,0,1259.734802,1250,9.734802246,1,2.722028017,174.690892
ABCD_1752,r,49,9,1,1405.734802,1396,9.734802246,0,2.956182957,177.6472361
ABCD_1752,r,50,10,0,1165.734802,1151,14.73480225,1,2.237970114,179.885534
ABCD_1752,r,51,10,1,1340,1354.734802,14.73480225,1,2.571752071,182.457509
ABCD_1752,r,52,10,0,1324,1331.367401,7.367401123,1,2.371558189,184.8292391
ABCD_1752,r,53,10,1,1299,1306.367401,7.367401123,1,2.304702044,187.13412
ABCD_1752,r,54,10,0,1052.683701,1049,3.683700562,1,2.170781136,189.305443
ABCD_1752,r,55,10,1,1204.683701,1201,3.683700562,1,2.471846104,191.7776132
ABCD_1752,r,56,10,0,1170,1171.84185,1.841850281,0,2.488454103,194.2663519
ABCD_1752,r,57,11,0,1267,1273.84185,6.841850281,1,2.822207928,197.088722
ABCD_1752,r,58,11,1,1084.84185,1078,6.841850281,1,2.688879967,199.777766
ABCD_1752,r,59,11,0,1162,1165.420925,3.42092514,1,3.106504917,202.8846321
ABCD_1752,r,60,11,1,1113.420925,1110,3.42092514,1,2.438076019,205.3228991
ABCD_1752,r,61,11,0,1372.710463,1371,1.71046257,0,3.039693117,208.3627679
ABCD_1752,r,62,12,0,1178,1184.710463,6.71046257,1,2.521878004,210.8849971
ABCD_1752,r,63,12,1,1090.710463,1084,6.71046257,1,2.237697124,213.12288
ABCD_1752,r,64,12,0,1217,1220.355231,3.355231285,0,3.357109785,216.4803131
ABCD_1752,r,65,13,0,1113.355231,1105,8.355231285,1,2.354628086,218.835355
ABCD_1752,r,66,13,1,1198.355231,1190,8.355231285,1,2.571654797,221.4072201
ABCD_1752,r,67,13,0,1248,1252.177616,4.177615643,1,2.538609982,223.945996
ABCD_1752,r,68,13,1,1176.177616,1172,4.177615643,1,2.839211226,226.785367
ABCD_1752,r,69,13,0,1106.088808,1104,2.088807821,1,2.805796862,229.5913301
ABCD_1752,r,70,13,1,1205.088808,1203,2.088807821,1,2.521790981,232.1132782
ABCD_1752,a,1,0,0,1000,1500,500,1,4.236407995,239.9133651
ABCD_1752,a,2,0,1,1000,500,500,1,2.588745832,242.5024581
ABCD_1752,a,3,0,0,1000,1250,250,1,2.989253044,245.49191
ABCD_1752,a,4,0,1,1000,750,250,1,2.521888971,248.0139601
